time,seconds_elapsed,z,y,x
1716979893867577600,0.04057763671875,-0.09979717433452606,0.005955760832875967,-0.0023670331574976444
1716979893877290800,0.050290771484375,-0.09124530851840973,0.06948387622833252,-0.03352024406194687
1716979893887004000,0.06000390625,-0.07230904698371887,0.13423368334770203,-0.0689493864774704
1716979893896717300,0.06971728515625,-0.04909684881567955,0.17882554233074188,-0.09888090193271637
1716979893906430500,0.079430419921875,-0.028938889503479004,0.1898207813501358,-0.11537377536296844
1716979893916143600,0.0891435546875,-0.014278554357588291,0.17943638563156128,-0.10987614840269089
1716979893925857000,0.09885693359375,-0.006337540224194527,0.14706148207187653,-0.07444700598716736
1716979893935570200,0.108570068359375,-0.014889402315020561,0.0841442123055458,-0.008475505746901035
1716979893945283300,0.118283447265625,-0.02832804247736931,0.004734066314995289,0.0758214145898819
1716979893954996700,0.127996826171875,-0.038101598620414734,-0.06673506647348404,0.15095563232898712
1716979893964710000,0.1377099609375,-0.04543176665902138,-0.1119377613067627,0.19554747641086578
1716979893974423000,0.147423095703125,-0.04421006888151169,-0.12048961967229843,0.20959696173667908
1716979893984136400,0.157136474609375,-0.03199312463402748,-0.09116895496845245,0.1949366331100464
1716979893993849600,0.166849609375,-0.012446013279259205,-0.03680354729294777,0.15156647562980652
1716979894003562800,0.176562744140625,0.008322793990373611,0.03833066672086716,0.09720107167959213
1716979894013276200,0.186276123046875,0.02970244735479355,0.10308047384023666,0.048333290964365005
1716979894022989300,0.1959892578125,0.043141089379787445,0.12262758612632751,0.009239064529538155
1716979894032702500,0.205702392578125,0.040697697550058365,0.10369132459163666,-0.01763821393251419
1716979894042415600,0.21541552734375,0.02053973823785782,0.05238015204668045,-0.03718532621860504
1716979894052129000,0.22512890625,-0.017332790419459343,-0.02764083817601204,-0.05978667363524437
1716979894061842200,0.23484228515625,-0.06742226332426071,-0.11743538826704025,-0.0958266630768776
1716979894071555600,0.2445556640625,-0.08696937561035156,-0.1895153671503067,-0.15019206702709198
1716979894081268700,0.254268798828125,-0.07475243508815765,-0.23777230083942413,-0.2149418741464615
1716979894090982000,0.26398193359375,-0.060092099010944366,-0.254265159368515,-0.27419406175613403
1716979894100695000,0.273695068359375,-0.047264307737350464,-0.23655059933662415,-0.3193967640399933
1716979894110408400,0.283408447265625,-0.031382277607917786,-0.18157434463500977,-0.34871742129325867
1716979894120121600,0.29312158203125,-0.008780929259955883,-0.09361234307289124,-0.35360419750213623
1716979894129834800,0.302834716796875,0.016874656081199646,-0.00015271181473508477,-0.334057092666626
1716979894139548200,0.312548095703125,0.03825430944561958,0.0713164210319519,-0.2906869351863861
1716979894149261300,0.32226123046875,0.05841226875782013,0.10674555599689484,-0.2259371280670166
1716979894158974500,0.331974365234375,0.07368344813585281,0.10735640674829483,-0.1483595222234726
1716979894168687900,0.34168798828125,0.08162446320056915,0.08964183181524277,-0.07078192383050919
1716979894178401000,0.351401123046875,0.08101361989974976,0.07437065243721008,-0.004810422193259001
1716979894188114200,0.3611142578125,0.0749051421880722,0.06032116711139679,0.03978142887353897
1716979894197827300,0.370827392578125,0.0620773509144783,0.04016320779919624,0.06421531736850739
1716979894207540700,0.380540771484375,0.04619532451033592,0.008399149402976036,0.06665870547294617
1716979894217254000,0.39025390625,0.029091600328683853,-0.02641914412379265,0.05199837312102318
1716979894226967300,0.39996728515625,0.011377030052244663,-0.05635065957903862,0.02817532978951931
1716979894236680400,0.409680419921875,-0.002061609411612153,-0.07834116369485855,0.0025197449140250683
1716979894246393600,0.4193935546875,-0.010002624243497849,-0.07956285774707794,-0.026190076023340225
1716979894256106800,0.429106689453125,-0.019776180386543274,-0.05757235363125801,-0.05795413255691528
1716979894265820200,0.438820068359375,-0.026495499536395073,-0.02214321307837963,-0.08971819281578064
1716979894275533300,0.448533203125,-0.0295497365295887,0.013896775431931019,-0.11293038725852966
1716979894285246500,0.45824658203125,-0.031382277607917786,0.041384901851415634,-0.11964970827102661
1716979894294959900,0.4679599609375,-0.03382566571235657,0.0584886260330677,-0.10621106624603271
1716979894304673000,0.477673095703125,-0.03749075159430504,0.06581879407167435,-0.07139277458190918
1716979894314386200,0.48738623046875,-0.047264307737350464,0.0590994730591774,-0.03474193811416626
1716979894324099600,0.497099609375,-0.05948125198483467,0.04016320779919624,-0.011529741808772087
1716979894333812700,0.506812744140625,-0.0686439573764801,0.014507622458040714,-0.012140588834881783
1716979894343526000,0.51652587890625,-0.0692548081278801,-0.01847812905907631,-0.03229855000972748
1716979894353239300,0.5262392578125,-0.06436803191900253,-0.0459662564098835,-0.06100837141275406
1716979894362952400,0.535952392578125,-0.05948125198483467,-0.05512896552681923,-0.08727480471134186
1716979894372665600,0.54566552734375,-0.04909684881567955,-0.05635065957903862,-0.09949174523353577
1716979894382379000,0.55537890625,-0.03382566571235657,-0.051463883370161057,-0.09643751382827759
1716979894392092200,0.565092041015625,-0.012446013279259205,-0.03374931216239929,-0.0823880210518837
1716979894401805300,0.574805419921875,0.010766183026134968,-0.012369656935334206,-0.06406260281801224
1716979894411518700,0.584518798828125,0.03092414326965809,-0.0050394898280501366,-0.05673243850469589
1716979894421231900,0.59423193359375,0.04741701856255531,-0.03497100621461868,-0.06772769242525101
1716979894430945000,0.603945068359375,0.05413633957505226,-0.09483403712511063,-0.09338327497243881
1716979894440658400,0.613658447265625,0.05413633957505226,-0.1656923145055771,-0.12575818598270416
1716979894450371600,0.62337158203125,0.05963396281003952,-0.24021568894386292,-0.1355317384004593
1716979894460084700,0.633084716796875,0.07795938104391098,-0.335507869720459,-0.020692450925707817
1716979894469798000,0.6427978515625,0.08162446320056915,-0.3611634373664856,0.03489464893937111
1716979894479511300,0.65251123046875,0.1005607321858406,-0.2689255177974701,0.02023431472480297
1716979894489224400,0.662224365234375,0.12010784447193146,-0.1247655525803566,0.028786176815629005
1716979894498937600,0.6719375,0.12988139688968658,-0.02764083817601204,0.06726955622434616
1716979894508651000,0.681651123046875,0.13476817309856415,0.023059483617544174,0.11796987801790237
1716979894518364200,0.6913642578125,0.15065020322799683,0.04504998400807381,0.16072918474674225
1716979894528077300,0.701077392578125,0.21051323413848877,0.05238015204668045,0.19066070020198822
1716979894537790700,0.710790771484375,0.2331145852804184,0.037108972668647766,0.21326205134391785
1716979894547503900,0.72050390625,0.22456271946430206,0.04199574887752533,0.23952847719192505
1716979894557217000,0.730217041015625,0.21478916704654694,0.06337540596723557,0.26518407464027405
1716979894566930400,0.739930419921875,0.19890713691711426,0.10857810080051422,0.29206135869026184
1716979894576643600,0.7496435546875,0.17691664397716522,0.18004722893238068,0.32810133695602417
1716979894586356700,0.759356689453125,0.16469968855381012,0.2588465213775635,0.3775799572467804
1716979894596070100,0.769070068359375,0.17691664397716522,0.3449759781360626,0.43377789855003357
1716979894605783300,0.778783203125,0.22334103286266327,0.4262186884880066,0.49058669805526733
1716979894615496400,0.788496337890625,0.2954210042953491,0.4665345847606659,0.535789430141449
1716979894625209900,0.7982099609375,0.3626905679702759,0.4280512034893036,0.5528931021690369
1716979894634923000,0.807923095703125,0.3987305462360382,0.31565532088279724,0.5241833329200745
1716979894644636200,0.81763623046875,0.3846810758113861,0.1366770714521408,0.428891122341156
1716979894654349600,0.827349609375,0.3076379597187042,-0.07467607408761978,0.2688491642475128
1716979894664062700,0.837062744140625,0.17080816626548767,-0.2658712565898895,0.056274302303791046
1716979894673775900,0.84677587890625,0.011987877078354359,-0.3831539452075958,-0.1868429034948349
1716979894683489300,0.8564892578125,-0.1217876747250557,-0.3990359604358673,-0.42331716418266296
1716979894693202400,0.866202392578125,-0.20486289262771606,-0.3306210935115814,-0.6041279435157776
1716979894702915600,0.87591552734375,-0.21891239285469055,-0.20967331528663635,-0.684148907661438
1716979894712628700,0.885628662109375,-0.15660595893859863,-0.07589777559041977,-0.6279509663581848
1716979894722342100,0.895342041015625,-0.04543176665902138,0.041384901851415634,-0.44103172421455383
1716979894732055300,0.90505517578125,0.06818582862615585,0.12079504877328873,-0.16729579865932465
1716979894741768700,0.914768798828125,0.13721156120300293,0.13179029524326324,0.12285665422677994
1716979894751481900,0.92448193359375,0.13110309839248657,0.09208522737026215,0.3775799572467804
1716979894761195000,0.934195068359375,0.09506310522556305,0.03649812191724777,0.5620558261871338
1716979894770908200,0.943908203125,0.07124006003141403,-0.05635065957903862,0.6292490363121033
1716979894780621600,0.95362158203125,0.039476003497838974,-0.14370182156562805,0.5877113938331604
1716979894790334700,0.963334716796875,0.008933641016483307,-0.15469707548618317,0.4789806008338928
1716979894800047900,0.9730478515625,-0.026495499536395073,-0.11560284346342087,0.322603702545166
1716979894809761300,0.98276123046875,-0.04665346071124077,-0.06001574173569679,0.13629528880119324
1716979894819474400,0.992474365234375,-0.030160583555698395,-0.014813045971095562,-0.04879142343997955
1716979894829187600,1.0021875,-0.0014507622690871358,0.0016798300202935934,-0.2002815455198288
1716979894838901000,1.01190087890625,0.01748550310730934,-0.0038177953101694584,-0.2888543903827667
1716979894848614100,1.0216142578125,0.02542651630938053,-0.006261184345930815,-0.31084489822387695
1716979894858327300,1.031327392578125,0.028480753302574158,0.01817270554602146,-0.2754157483577728
1716979894868040700,1.041040771484375,0.019928891211748123,0.0590994730591774,-0.20700086653232574
1716979894877753900,1.05075390625,-0.006337540224194527,0.10430216789245605,-0.13675342500209808
1716979894887467000,1.060467041015625,-0.044820915907621384,0.14889401197433472,-0.10010259598493576
1716979894897180400,1.070180419921875,-0.08696937561035156,0.18615570664405823,-0.11170869320631027
1716979894906893600,1.0798935546875,-0.12606360018253326,0.18432316184043884,-0.14958122372627258
1716979894916606700,1.089606689453125,-0.15782766044139862,0.13484452664852142,-0.1862320601940155
1716979894926320000,1.099320068359375,-0.16943375766277313,0.05604523420333862,-0.20577916502952576
1716979894936033300,1.109033203125,-0.14988665282726288,-0.03374931216239929,-0.19478392601013184
1716979894945746400,1.118746337890625,-0.1077381819486618,-0.12293300777673721,-0.1483595222234726
1716979894955459800,1.1284599609375,-0.050929389894008636,-0.22616620361804962,-0.07261446863412857
1716979894965173000,1.138173095703125,-0.03565821051597595,-0.3446705639362335,0.006184828467667103
1716979894974886100,1.14788623046875,-0.0423775278031826,-0.4161396920681,0.07154548168182373
1716979894984599600,1.157599609375,-0.03871244564652443,-0.44790375232696533,0.15950748324394226
1716979894994312700,1.167312744140625,-0.022219568490982056,-0.5657972693443298,0.47287213802337646
1716979895004025900,1.17702587890625,-0.04787515476346016,-0.5865660905838013,0.5638883709907532
1716979895013739300,1.1867392578125,-0.06742226332426071,-0.45889899134635925,0.3885752260684967
1716979895023452400,1.196452392578125,-0.08880192041397095,-0.17485502362251282,0.034283801913261414
1716979895033165600,1.20616552734375,-0.11445750296115875,0.10735640674829483,-0.3468848764896393
1716979895042878700,1.215878662109375,-0.11506835371255875,0.3058817684650421,-0.6267293095588684
1716979895052592000,1.225592041015625,-0.10346225649118423,0.40422818064689636,-0.7385143637657166
1716979895062305300,1.23530517578125,-0.11506835371255875,0.3382566571235657,-0.6474980711936951
1716979895072018700,1.245018798828125,-0.12362021207809448,0.16050012409687042,-0.3921639323234558
1716979895081731800,1.25473193359375,-0.11262496560811996,-0.01175880990922451,-0.07505785673856735
1716979895091445000,1.264445068359375,-0.10346225649118423,-0.13148486614227295,0.2193705290555954
1716979895101158400,1.274158447265625,-0.08574768155813217,-0.17302247881889343,0.42095011472702026
1716979895110871600,1.28387158203125,-0.08391514420509338,-0.1760767251253128,0.4985277056694031
1716979895120584700,1.293584716796875,-0.11079242080450058,-0.15714046359062195,0.4655419588088989
1716979895130297900,1.3032978515625,-0.1480541080236435,-0.13331741094589233,0.3507026731967926
1716979895140011300,1.31301123046875,-0.1737096905708313,-0.10582929104566574,0.2059318870306015
1716979895149724400,1.322724365234375,-0.17676392197608948,-0.05635065957903862,0.08498412370681763
1716979895159437800,1.332437744140625,-0.15294088423252106,0.020616095513105392,0.022677704691886902
1716979895169151000,1.34215087890625,-0.1077381819486618,0.0847550556063652,0.022677704691886902
1716979895178864000,1.351864013671875,-0.056427016854286194,0.10002623498439789,0.06665870547294617
1716979895188577300,1.361577392578125,-0.02710634656250477,0.04688252881169319,0.10880716890096664
1716979895198290700,1.371290771484375,-0.03443651273846626,-0.02214321307837963,0.10880716890096664
1716979895208003800,1.38100390625,-0.082082599401474,-0.05390727147459984,0.047111593186855316
1716979895217717200,1.39071728515625,-0.16332527995109558,-0.05390727147459984,-0.06284090876579285
1716979895227430400,1.400430419921875,-0.27327778935432434,-0.03374931216239929,-0.19478392601013184
1716979895237143600,1.4101435546875,-0.39178216457366943,-0.001374406274408102,-0.32672691345214844
1716979895246856700,1.419856689453125,-0.48340925574302673,0.037108972668647766,-0.4343124032020569
1716979895256570000,1.429570068359375,-0.5145624876022339,0.09513945877552032,-0.4947862923145294
1716979895266283300,1.439283203125,-0.4876851737499237,0.18249061703681946,-0.4844018816947937
1716979895275996400,1.448996337890625,-0.41438350081443787,0.25090551376342773,-0.38666632771492004
1716979895285709800,1.458709716796875,-0.3074852526187897,0.2851129472255707,-0.20822255313396454
1716979895295423000,1.468423095703125,-0.18226155638694763,0.26434415578842163,0.025731941685080528
1716979895305136000,1.47813623046875,-0.06681142002344131,0.17882554233074188,0.26457321643829346
1716979895314849500,1.487849609375,0.018707197159528732,0.04443913698196411,0.4563792645931244
1716979895324562700,1.497562744140625,0.07246175408363342,-0.10460758954286575,0.5638883709907532
1716979895334275800,1.50727587890625,0.09872818738222122,-0.22250111401081085,0.5913764834403992
1716979895343989200,1.5169892578125,0.09506310522556305,-0.27747735381126404,0.5638883709907532
1716979895353702400,1.526702392578125,0.06574243307113647,-0.2701472043991089,0.5058578848838806
1716979895363415600,1.53641552734375,0.02664821222424507,-0.22372281551361084,0.42278265953063965
1716979895373129000,1.54612890625,-0.010613471269607544,-0.1620272397994995,0.31771692633628845
1716979895382842000,1.555842041015625,-0.04543176665902138,-0.0984991192817688,0.194325789809227
1716979895392555300,1.56555517578125,-0.07291989028453827,-0.04963133856654167,0.0623827762901783
1716979895402268700,1.5752685546875,-0.08941277116537094,-0.011147962883114815,-0.05795413255691528
1716979895411981800,1.58498193359375,-0.09613208472728729,0.017561858519911766,-0.14897038042545319
1716979895421695000,1.594695068359375,-0.0942995473742485,0.052990999072790146,-0.19172967970371246
1716979895431408400,1.604408447265625,-0.0949103906750679,0.10491301864385605,-0.18501035869121552
1716979895441121500,1.61412158203125,-0.11079242080450058,0.16538690030574799,-0.14408360421657562
1716979895450834700,1.623834716796875,-0.13217207789421082,0.23685602843761444,-0.08544225990772247
1716979895460548000,1.633548095703125,-0.15049749612808228,0.3071034550666809,-0.017027366906404495
1716979895470261200,1.64326123046875,-0.17004460096359253,0.35658207535743713,0.04772244393825531
1716979895479974400,1.652974365234375,-0.18103985488414764,0.37979426980018616,0.1020878478884697
1716979895489687800,1.662687744140625,-0.17676392197608948,0.3706315755844116,0.1417929232120514
1716979895499401000,1.67240087890625,-0.16637952625751495,0.3382566571235657,0.16317257285118103
1716979895509114000,1.682114013671875,-0.15171918272972107,0.2814478874206543,0.16500511765480042
1716979895518827500,1.69182763671875,-0.1346154659986496,0.20142687857151031,0.14545799791812897
1716979895528540700,1.701540771484375,-0.11506835371255875,0.11468657106161118,0.10575293004512787
1716979895538253800,1.71125390625,-0.09613208472728729,0.03771981969475746,0.052609220147132874
1716979895547967200,1.72096728515625,-0.07902836054563522,-0.016034740954637527,-0.010918894782662392
1716979895557680400,1.730680419921875,-0.06436803191900253,-0.036192700266838074,-0.07383616268634796
1716979895567393500,1.7403935546875,-0.04604261368513107,-0.029473381116986275,-0.12331479042768478
1716979895577107000,1.75010693359375,-0.02405211143195629,-0.014202198944985867,-0.14897038042545319
1716979895586820000,1.759820068359375,-0.010002624243497849,-0.012980503961443901,-0.15202461183071136
1716979895596533200,1.769533203125,-0.008780929259955883,-0.022754060104489326,-0.1343100368976593
1716979895606246700,1.77924658203125,-0.0295497365295887,-0.014202198944985867,-0.10376767814159393
1716979895615959800,1.788959716796875,-0.07902836054563522,0.026724567636847496,-0.059175826609134674
1716979895625673000,1.7986728515625,-0.14316733181476593,0.05726693198084831,-0.02680092304944992
1716979895635386400,1.808386474609375,-0.2011978179216385,0.05665608495473862,-0.02680092304944992
1716979895645099500,1.818099609375,-0.23662695288658142,0.0456608310341835,-0.05184566229581833
1716979895654812700,1.827812744140625,-0.2409028857946396,0.010842538438737392,-0.07017108052968979
1716979895664526000,1.837526123046875,-0.21524730324745178,-0.08139539510011673,-0.0426829531788826
1716979895674239200,1.8472392578125,-0.19264595210552216,-0.22616620361804962,0.02023431472480297
1716979895683952400,1.856952392578125,-0.15294088423252106,-0.3837648034095764,0.07032378762960434
1716979895693665800,1.866665771484375,-0.08941277116537094,-0.4259132444858551,0.141182079911232
1716979895703379000,1.87637890625,-0.02160872146487236,-0.4002576768398285,0.2065427303314209
1716979895713092000,1.886092041015625,0.04802786558866501,-0.35383328795433044,0.25479966402053833
1716979895722805500,1.895805419921875,0.1146102175116539,-0.2560977041721344,0.3079433739185333
1716979895732518700,1.9055185546875,0.179360032081604,-0.05390727147459984,0.3897969126701355
1716979895742231800,1.915231689453125,0.22639526426792145,0.1623326539993286,0.5009710788726807
1716979895751945200,1.9249453125,0.24288813769817352,0.27350685000419617,0.6133670210838318
1716979895761658400,1.934658447265625,0.24227729439735413,0.2838912606239319,0.6976639032363892
1716979895771371500,1.94437158203125,0.23800136148929596,0.24724042415618896,0.7153785228729248
1716979895781085000,1.9540849609375,0.23922306299209595,0.19776180386543274,0.6335249543190002
1716979895790798000,1.963798095703125,0.2331145852804184,0.1378987729549408,0.44721654057502747
1716979895800511200,1.97351123046875,0.21662171185016632,0.08047912269830704,0.18943901360034943
1716979895810224600,1.983224609375,0.19707459211349487,0.0328330397605896,-0.08727480471134186
1716979895819937800,1.992937744140625,0.18424680829048157,0.0022906772792339325,-0.3291703164577484
1716979895829651000,2.00265087890625,0.18180342018604279,0.0035123717971146107,-0.4844018816947937
1716979895839364400,2.0123642578125,0.18424680829048157,0.04321744292974472,-0.5283828973770142
1716979895849077500,2.022077392578125,0.19524206221103668,0.10552386194467545,-0.469741553068161
1716979895858790700,2.031790771484375,0.2331145852804184,0.1635543555021286,-0.3322245478630066
1716979895868504000,2.041504150390625,0.29481014609336853,0.20570281147956848,-0.1599656194448471
1716979895878217200,2.05121728515625,0.36513394117355347,0.20692451298236847,0.0037414394319057465
1716979895887930400,2.060930419921875,0.4262186884880066,0.14095300436019897,0.13446275889873505
1716979895897643800,2.070643798828125,0.46897798776626587,-0.012980503961443901,0.2181488275527954
1716979895907357000,2.08035693359375,0.4934118688106537,-0.2292204350233078,0.24991288781166077
1716979895917070000,2.090070068359375,0.5086830258369446,-0.4491254389286041,0.2328091561794281
1716979895926783500,2.099783447265625,0.5196782946586609,-0.6183301210403442,0.17111359536647797
1716979895936496600,2.10949658203125,0.5190674662590027,-0.7020162343978882,0.08009734749794006
1716979895946210000,2.1192099609375,0.49829864501953125,-0.6830799579620361,-0.0231358390301466
1716979895955923200,2.128923095703125,0.45737189054489136,-0.5877877473831177,-0.12881241738796234
1716979895965636400,2.13863623046875,0.3993414044380188,-0.44362783432006836,-0.22288289666175842
1716979895975349500,2.148349609375,0.34131091833114624,-0.2689255177974701,-0.28763270378112793
1716979895985063000,2.15806298828125,0.283204048871994,-0.1107160672545433,-0.32672691345214844
1716979895994776000,2.167776123046875,0.23433628678321838,0.0022906772792339325,-0.3450523316860199
1716979896004489500,2.177489501953125,0.20257222652435303,0.06948387622833252,-0.33894386887550354
1716979896014202600,2.18720263671875,0.18485765159130096,0.0981936976313591,-0.3077906668186188
1716979896023915800,2.196915771484375,0.17202985286712646,0.10063708573579788,-0.25647950172424316
1716979896033629200,2.206629150390625,0.1524827480316162,0.09208522737026215,-0.1880646049976349
1716979896043342300,2.21634228515625,0.11216682940721512,0.08719844371080399,-0.11109784245491028
1716979896053055500,2.226055419921875,0.04497363045811653,0.07681404054164886,-0.044515494257211685
1716979896062769000,2.235768798828125,-0.04665346071124077,0.06765133142471313,-0.0035887276753783226
1716979896072482000,2.24548193359375,-0.14377817511558533,0.06337540596723557,0.007406522985547781
1716979896082195200,2.2551953125,-0.2274642437696457,0.06459710001945496,-0.0023670331574976444
1716979896091908600,2.26490869140625,-0.2909923493862152,0.050547610968351364,-0.018249060958623886
1716979896101621800,2.274621826171875,-0.3166479468345642,0.01817270554602146,-0.018249060958623886
1716979896111335000,2.2843349609375,-0.2928248941898346,-0.008093725889921188,0.013514995574951172
1716979896121048300,2.29404833984375,-0.22868594527244568,-0.01847812905907631,0.062993623316288
1716979896130761500,2.303761474609375,-0.1462215632200241,-0.02214321307837963,0.10941801220178604
1716979896140474600,2.313474609375,-0.05948125198483467,-0.02886253222823143,0.12530004978179932
1716979896150188000,2.32318798828125,0.019318044185638428,-0.03924693539738655,0.09659022092819214
1716979896159901200,2.332901123046875,0.07368344813585281,-0.049020491540431976,0.036727190017700195
1716979896169614600,2.342614501953125,0.0889546349644661,-0.051463883370161057,-0.02680092304944992
1716979896179327700,2.35232763671875,0.06452073901891708,-0.03436015918850899,-0.06039752438664436
1716979896189041000,2.362041015625,0.013209572061896324,0.011453386396169662,-0.052456509321928024
1716979896198754300,2.37175439453125,-0.05031854286789894,0.0725381150841713,-0.004810422193259001
1716979896208467500,2.381467529296875,-0.10590564459562302,0.13117945194244385,0.0745997205376625
1716979896218180600,2.3911806640625,-0.1468324065208435,0.16538690030574799,0.1680593490600586
1716979896227894000,2.40089404296875,-0.17737478017807007,0.15988926589488983,0.25479966402053833
1716979896237607200,2.410607177734375,-0.20364120602607727,0.1250709742307663,0.30183491110801697
1716979896247320300,2.4203203125,-0.2268534004688263,0.06337540596723557,0.2890070974826813
1716979896257033700,2.43003369140625,-0.24701136350631714,-0.02764083817601204,0.2181488275527954
1716979896266747000,2.439746826171875,-0.27205610275268555,-0.13270656764507294,0.1014770045876503
1716979896276460000,2.4494599609375,-0.29771167039871216,-0.21944688260555267,-0.02924431301653385
1716979896286173400,2.45917333984375,-0.3050418496131897,-0.2414373755455017,-0.13003410398960114
1716979896295886600,2.468886474609375,-0.2775537371635437,-0.17974179983139038,-0.16363070905208588
1716979896305600000,2.47860009765625,-0.20913882553577423,-0.08261708915233612,-0.120871402323246
1716979896315313200,2.488313232421875,-0.12667444348335266,-0.012980503961443901,-0.023746687918901443
1716979896325026300,2.4980263671875,-0.07169819623231888,0.021226942539215088,0.08559497445821762
1716979896334739500,2.507739501953125,-0.05459447205066681,0.04077405482530594,0.17355698347091675
1716979896344452900,2.517452880859375,-0.07414158433675766,0.03833066672086716,0.22792237997055054
1716979896354166000,2.527166015625,-0.13766969740390778,0.019394399598240852,0.2596864402294159
1716979896363879400,2.53687939453125,-0.24273543059825897,-0.008704573847353458,0.27801185846328735
1716979896373592600,2.546592529296875,-0.36062896251678467,-0.06062658876180649,0.2835094928741455
1716979896383305700,2.5563056640625,-0.4632512927055359,-0.1638597846031189,0.2572430372238159
1716979896393019100,2.56601904296875,-0.5414397120475769,-0.3061871826648712,0.1802763044834137
1716979896402732300,2.575732177734375,-0.5866424441337585,-0.45767730474472046,0.05566345527768135
1716979896412445400,2.585445556640625,-0.5951942801475525,-0.6000047326087952,-0.09277242422103882
1716979896422158800,2.595158935546875,-0.5701495409011841,-0.7038487792015076,-0.21982865035533905
1716979896431872000,2.6048720703125,-0.5249468684196472,-0.7490514516830444,-0.2912977933883667
1716979896441585400,2.61458544921875,-0.46813806891441345,-0.7130114436149597,-0.29984965920448303
1716979896451298600,2.624298583984375,-0.4088858962059021,-0.598783016204834,-0.2650313675403595
1716979896461011700,2.63401171875,-0.3581855595111847,-0.4289674758911133,-0.22105035185813904
1716979896470725000,2.64372509765625,-0.3270323574542999,-0.23410721123218536,-0.20944425463676453
1716979896480438300,2.653438232421875,-0.30870693922042847,-0.05207473039627075,-0.2528144121170044
1716979896490151400,2.6631513671875,-0.2916032075881958,0.09391776472330093,-0.3438306450843811
1716979896499864800,2.67286474609375,-0.28488388657569885,0.19715094566345215,-0.46241137385368347
1716979896509578000,2.682577880859375,-0.28305134177207947,0.2710634768009186,-0.5760289430618286
1716979896519291100,2.692291015625,-0.2769428789615631,0.31565532088279724,-0.6591041684150696
1716979896529004500,2.702004638671875,-0.2549523711204529,0.3211529552936554,-0.6951441764831543
1716979896538717700,2.7117177734375,-0.21036052703857422,0.2802261710166931,-0.6707102656364441
1716979896548431000,2.72143115234375,-0.1462215632200241,0.20631365478038788,-0.5894675850868225
1716979896558144300,2.731144287109375,-0.07658497244119644,0.11896250396966934,-0.46607646346092224
1716979896567857400,2.740857421875,-0.014889402315020561,0.04443913698196411,-0.30962321162223816
1716979896577570800,2.75057080078125,0.02970244735479355,-0.0050394898280501366,-0.14347274601459503
1716979896587284000,2.760283935546875,0.04802786558866501,-0.02092151902616024,0.004963133949786425
1716979896596997000,2.7699970703125,0.05230379477143288,-0.004428642801940441,0.11369394510984421
1716979896606710500,2.77971044921875,0.0492495596408844,0.031000498682260513,0.16989189386367798
1716979896616423700,2.789423583984375,0.03764346241950989,0.0725381150841713,0.17783290147781372
1716979896626137000,2.79913720703125,0.02053973823785782,0.12690351903438568,0.14545799791812897
1716979896635850200,2.808850341796875,-0.0014507622690871358,0.19287502765655518,0.08254073560237885
1716979896645563400,2.8185634765625,-0.023441264405846596,0.25090551376342773,0.005573981441557407
1716979896655276800,2.82827685546875,-0.04115583375096321,0.2851129472255707,-0.0683385357260704
1716979896664990000,2.837989990234375,-0.05031854286789894,0.28633466362953186,-0.12270393967628479
1716979896674703000,2.847703125,-0.044820915907621384,0.2686200737953186,-0.14225105941295624
1716979896684416500,2.85741650390625,-0.03687990456819534,0.23380178213119507,-0.1343100368976593
1716979896694129700,2.867129638671875,-0.041766680777072906,0.18126893043518066,-0.11659546941518784
1716979896703843000,2.876843017578125,-0.04909684881567955,0.1372879147529602,-0.09216158092021942
1716979896713556200,2.88655615234375,-0.058870404958724976,0.12751436233520508,-0.06406260281801224
1716979896723269400,2.896269287109375,-0.0686439573764801,0.164165198802948,-0.03474193811416626
1716979896732982800,2.905982666015625,-0.0686439573764801,0.22647161781787872,0.005573981441557407
1716979896742696000,2.915696044921875,-0.05215108394622803,0.2942756712436676,0.06421531736850739
1716979896752409000,2.9254091796875,-0.013667707331478596,0.3590254783630371,0.13446275889873505
1716979896762122500,2.93512255859375,0.03886515647172928,0.3975088596343994,0.20043425261974335
1716979896771835600,2.944835693359375,0.10178242623806,0.3968980014324188,0.2566322088241577
1716979896781549000,2.954549072265625,0.16225630044937134,0.35169529914855957,0.30366745591163635
1716979896791262200,2.96426220703125,0.2050156146287918,0.27350685000419617,0.3372640311717987
1716979896800975400,2.973975341796875,0.22700610756874084,0.1769929975271225,0.35803285241127014
1716979896810688800,2.983688720703125,0.23677967488765717,0.07437065243721008,0.3629196286201477
1716979896820402000,2.99340185546875,0.24044474959373474,-0.0068720318377017975,0.3488701283931732
1716979896830115300,3.003115234375,0.2441098392009735,-0.009315420873463154,0.3232145607471466
1716979896839828500,3.012828369140625,0.2575484812259674,0.06826218217611313,0.2957264184951782
1716979896849541600,3.022541748046875,0.27953898906707764,0.16599774360656738,0.2725142240524292
1716979896859255000,3.032255126953125,0.3076379597187042,0.24846212565898895,0.24930204451084137
1716979896868968200,3.04196826171875,0.33207184076309204,0.319320410490036,0.21570543944835663
1716979896878681300,3.051681396484375,0.34008920192718506,0.36452311277389526,0.16072918474674225
1716979896888394800,3.061394775390625,0.32046574354171753,0.34375429153442383,0.07948649674654007
1716979896898108000,3.07110791015625,0.26548948884010315,0.23807771503925323,-0.01885990984737873
1716979896907821300,3.0808212890625,0.18302510678768158,0.060932014137506485,-0.12331479042768478
1716979896917534500,3.090534423828125,0.1023932695388794,-0.10949437320232391,-0.22227205336093903
1716979896927248000,3.100247802734375,0.06513158977031708,-0.20234315097332,-0.2760266065597534
1716979896936961000,3.1099609375,0.06329904496669769,-0.2176143378019333,-0.26014456152915955
1716979896946674200,3.119674072265625,0.08956547826528549,-0.1754658818244934,-0.17584764957427979
1716979896956387600,3.1293876953125,0.15126104652881622,-0.09605573117733002,-0.0426829531788826
1716979896966100700,3.139100830078125,0.2318928837776184,-0.020310672000050545,0.10269869863986969
1716979896975814000,3.14881396484375,0.2966426908969879,0.013285927474498749,0.2309766262769699
1716979896985527300,3.15852734375,0.3358132839202881,-0.025808297097682953,0.3262687921524048
1716979896995240400,3.168240478515625,0.36696648597717285,-0.14431266486644745,0.37024980783462524
1716979897004953900,3.177953857421875,0.40606072545051575,-0.3220692276954651,0.35803285241127014
1716979897014667000,3.1876669921875,0.4506525695323944,-0.5077667832374573,0.2963372766971588
1716979897024380200,3.197380126953125,0.49524441361427307,-0.6403206586837769,0.18577392399311066
1716979897034093600,3.207093505859375,0.5367820262908936,-0.6671979427337646,0.04222481697797775
1716979897043806700,3.216806640625,0.5648810267448425,-0.5926745533943176,-0.09704835712909698
1716979897053520100,3.22652001953125,0.5654918551445007,-0.4546230733394623,-0.2002815455198288
1716979897063233300,3.2362333984375,0.5349494814872742,-0.2921377122402191,-0.26014456152915955
1716979897072946400,3.245946533203125,0.478751540184021,-0.1247655525803566,-0.27297237515449524
1716979897082659800,3.255659912109375,0.40361732244491577,0.03527642786502838,-0.24181915819644928
1716979897092373000,3.265373046875,0.32962843775749207,0.1635543555021286,-0.17951273918151855
1716979897102086400,3.27508642578125,0.26426780223846436,0.2276933193206787,-0.1074327602982521
1716979897111799600,3.284799560546875,0.2044047713279724,0.22097399830818176,-0.045737188309431076
1716979897121512700,3.2945126953125,0.15065020322799683,0.17271706461906433,-0.00786465872079134
1716979897131226000,3.30422607421875,0.11277767270803452,0.12323843687772751,0.005573981441557407
1716979897140939300,3.313939208984375,0.0877329409122467,0.08047912269830704,0.007406522985547781
1716979897150652400,3.32365234375,0.07307260483503342,0.043828289955854416,0.015347537584602833
1716979897160365800,3.33336572265625,0.07062921673059464,0.017561858519911766,0.04527905210852623
1716979897170079200,3.343079345703125,0.08223531395196915,0.010842538438737392,0.09720107167959213
1716979897179792400,3.35279248046875,0.10789089649915695,0.019394399598240852,0.1546207070350647
1716979897189505500,3.362505615234375,0.1420983374118805,0.03894151374697685,0.20165595412254333
1716979897199219000,3.372218994140625,0.17141900956630707,0.05543438717722893,0.22425730526447296
1716979897208932000,3.38193212890625,0.1811925619840622,0.05421269312500954,0.2199813723564148
1716979897218645200,3.391645263671875,0.17080816626548767,0.029167955741286278,0.1949366331100464
1716979897228358700,3.401358642578125,0.14759597182273865,-0.01725643500685692,0.14912308752536774
1716979897238071800,3.41107177734375,0.11583191156387329,-0.07101099193096161,0.08742751181125641
1716979897247785200,3.42078515625,0.08345700800418854,-0.11254860460758209,0.022066857665777206
1716979897257498400,3.430498291015625,0.051082100719213486,-0.13270656764507294,-0.03840702027082443
1716979897267211800,3.440211669921875,0.029091600328683853,-0.1253764033317566,-0.0823880210518837
1716979897276925000,3.449925048828125,0.021150587126612663,-0.10888352245092392,-0.10010259598493576
1716979897286638000,3.45963818359375,0.027259059250354767,-0.08200624585151672,-0.09765920788049698
1716979897296351500,3.4693515625,0.04558447748422623,-0.017867282032966614,-0.0811663269996643
1716979897306064600,3.479064697265625,0.06757497787475586,0.07742489129304886,-0.04512634128332138
1716979897315777800,3.48877783203125,0.07795938104391098,0.14522893726825714,0.0031305921729654074
1716979897325491200,3.4984912109375,0.05657972767949104,0.15500248968601227,0.04100312292575836
1716979897335204400,3.508204345703125,0.009544488042593002,0.13056860864162445,0.06543701142072678
1716979897344917800,3.517917724609375,-0.04665346071124077,0.10185877978801727,0.07704310864210129
1716979897354631000,3.527630859375,-0.09613208472728729,0.09513945877552032,0.07826480269432068
1716979897364344300,3.53734423828125,-0.11690089106559753,0.11835165321826935,0.08315158635377884
1716979897374057500,3.547057373046875,-0.10651648789644241,0.11774080991744995,0.09475768357515335
1716979897383770600,3.5567705078125,-0.09246700257062912,0.060932014137506485,0.1008661538362503
1716979897393484000,3.566484130859375,-0.08330429345369339,-0.008704573847353458,0.09659022092819214
1716979897403197200,3.576197265625,-0.07902836054563522,-0.06245913356542587,0.08009734749794006
1716979897412910600,3.58591064453125,-0.09735377877950668,-0.10644013434648514,0.055052608251571655
1716979897422623700,3.595623779296875,-0.15599511563777924,-0.1382041871547699,0.04161396995186806
1716979897432337000,3.6053369140625,-0.2549523711204529,-0.1241547018289566,0.04650074616074562
1716979897442050300,3.61505029296875,-0.36246147751808167,-0.058183200657367706,0.04772244393825531
1716979897451763500,3.624763427734375,-0.449812650680542,0.01695101149380207,0.022066857665777206
1716979897461476900,3.634476806640625,-0.5139515995979309,0.07070557028055191,-0.03290939703583717
1716979897471190000,3.64418994140625,-0.5567108988761902,0.08108997344970703,-0.10437852889299393
1716979897480903400,3.6539033203125,-0.5725929737091064,0.0462716780602932,-0.18256697058677673
1716979897490616600,3.663616455078125,-0.5554892420768738,-0.02092151902616024,-0.25892287492752075
1716979897500329700,3.673329833984375,-0.5090648531913757,-0.09483403712511063,-0.32672691345214844
1716979897510043100,3.683043212890625,-0.445536732673645,-0.14614520967006683,-0.38605546951293945
1716979897519756300,3.69275634765625,-0.37712183594703674,-0.14675605297088623,-0.43858832120895386
1716979897529469700,3.7024697265625,-0.31176117062568665,-0.0844496339559555,-0.4844018816947937
1716979897539182800,3.712182861328125,-0.25922831892967224,0.02244863659143448,-0.5192201733589172
1716979897548896300,3.721896240234375,-0.2256316989660263,0.14217470586299896,-0.5375455617904663
1716979897558609400,3.731609375,-0.20669543743133545,0.2582356929779053,-0.5326588153839111
1716979897568322600,3.741322509765625,-0.19631104171276093,0.3596363365650177,-0.5063923597335815
1716979897578036000,3.751035888671875,-0.18348324298858643,0.43354883790016174,-0.4587462842464447
1716979897587749000,3.7607490234375,-0.15416257083415985,0.46897798776626587,-0.3836120665073395
1716979897597462500,3.770462646484375,-0.10957072675228119,0.4610369801521301,-0.2790808379650116
1716979897607175700,3.78017578125,-0.057648710906505585,0.4146125912666321,-0.1587439328432083
1716979897616888800,3.789888916015625,-0.007559234742075205,0.33886751532554626,-0.044515494257211685
1716979897626602200,3.799602294921875,0.031534988433122635,0.2527380585670471,0.04650074616074562
1716979897636315400,3.8093154296875,0.05963396281003952,0.17210622131824493,0.10269869863986969
1716979897646028800,3.81902880859375,0.06879667192697525,0.10369132459163666,0.12224581092596054
1716979897655742000,3.828741943359375,0.060244809836149216,0.05360184609889984,0.10758547484874725
1716979897665455400,3.838455322265625,0.03825430944561958,0.0261137206107378,0.06604786217212677
1716979897675168500,3.84816845703125,0.010155336000025272,0.01817270554602146,0.005573981441557407
1716979897684881700,3.857881591796875,-0.019776180386543274,0.021837789565324783,-0.06223006546497345
1716979897694595000,3.867594970703125,-0.049707695841789246,0.020005248486995697,-0.120871402323246
1716979897704308200,3.87730810546875,-0.08025006204843521,-0.006261184345930815,-0.15630054473876953
1716979897714021600,3.887021728515625,-0.10285140573978424,-0.072843536734581,-0.15507884323596954
1716979897723734800,3.89673486328125,-0.10957072675228119,-0.16996824741363525,-0.11476293206214905
1716979897733448200,3.9064482421875,-0.09185615926980972,-0.2786990702152252,-0.04940227046608925
1716979897743161300,3.916161376953125,-0.048486001789569855,-0.37887802720069885,0.02145601063966751
1716979897752874800,3.925874755859375,0.0009926267666742206,-0.4521796703338623,0.0880383625626564
1716979897762588000,3.935587890625,0.039476003497838974,-0.4766135811805725,0.15706409513950348
1716979897772301000,3.945301025390625,0.05291464552283287,-0.4271349310874939,0.2334200143814087
1716979897782014500,3.955014404296875,0.04375193640589714,-0.30313295125961304,0.3085542321205139
1716979897791727600,3.9647275390625,0.028480753302574158,-0.14125843346118927,0.3867426812648773
1716979897801441000,3.97444091796875,0.024815669283270836,0.0261137206107378,0.4685961902141571
1716979897811154200,3.984154296875,0.0364217683672905,0.14889401197433472,0.5321243405342102
1716979897820867300,3.993867431640625,0.06085565686225891,0.19959434866905212,0.5516714453697205
1716979897830580700,4.003580810546875,0.08956547826528549,0.17454960942268372,0.5150206089019775
1716979897840294000,4.0132939453125,0.10605835169553757,0.07925742864608765,0.4325562119483948
1716979897850007300,4.02300732421875,0.09750649333000183,-0.03436015918850899,0.3232145607471466
1716979897859720400,4.032720458984375,0.07185091078281403,-0.10338589549064636,0.21020781993865967
1716979897869433900,4.042433837890625,0.04741701856255531,-0.0984991192817688,0.10330954194068909
1716979897879147000,4.05214697265625,0.041919391602277756,-0.013591351918876171,0.004963133949786425
1716979897888860400,4.0618603515625,0.0761268362402916,0.12812520563602448,-0.06528430432081223
1716979897898573600,4.071573486328125,0.14393088221549988,0.2655658423900604,-0.09827005118131638
1716979897908286700,4.08128662109375,0.2184542566537857,0.35658207535743713,-0.120871402323246
1716979897918000000,4.091000244140625,0.26548948884010315,0.3596363365650177,-0.18012358248233795
1716979897927713300,4.10071337890625,0.25449424982070923,0.24052110314369202,-0.3181750774383545
1716979897937426700,4.1104267578125,0.1671430766582489,0.0022906772792339325,-0.5387672781944275
1716979897947139800,4.120139892578125,0.031534988433122635,-0.28602921962738037,-0.7812736630439758
1716979897956853200,4.129853271484375,-0.10957072675228119,-0.51998370885849,-0.9517000317573547
1716979897966566400,4.13956640625,-0.21524730324745178,-0.6116108298301697,-0.9840749502182007
1716979897976279600,4.149279541015625,-0.2262425571680069,-0.5181511640548706,-0.8435800671577454
1716979897985993000,4.158992919921875,-0.11995512992143631,-0.23593975603580475,-0.5448757410049438
1716979897995706000,4.1687060546875,0.06513158977031708,0.1372879147529602,-0.14530529081821442
1716979898005419500,4.17841943359375,0.26487863063812256,0.4640912115573883,0.2871745824813843
1716979898015132700,4.188132568359375,0.4268295168876648,0.6351284384727478,0.6671215891838074
1716979898024846000,4.19784619140625,0.5367820262908936,0.60825115442276,0.9090170860290527
1716979898034559200,4.207559326171875,0.6051968932151794,0.399952232837677,0.979264497756958
1716979898044272600,4.217272705078125,0.6400152444839478,0.09452861547470093,0.8980218172073364
1716979898053985800,4.22698583984375,0.6461237072944641,-0.22005772590637207,0.7123242616653442
1716979898063699000,4.236698974609375,0.6223006248474121,-0.4631749391555786,0.4802022874355316
1716979898073412400,4.246412353515625,0.576487123966217,-0.5816792845726013,0.24869118630886078
1716979898083125500,4.25612548828125,0.5184566378593445,-0.5749599933624268,0.06116108223795891
1716979898092839000,4.2658388671875,0.4653128981590271,-0.4637857675552368,-0.05856497958302498
1716979898102552000,4.275552001953125,0.4286620616912842,-0.3049654960632324,-0.11598462611436844
1716979898112265500,4.285265380859375,0.402395635843277,-0.16080553829669952,-0.12514732778072357
1716979898121978600,4.294978515625,0.376740038394928,-0.055739812552928925,-0.10071343928575516
1716979898131692000,4.304692138671875,0.34253260493278503,0.0035123717971146107,-0.0555107444524765
1716979898141405200,4.3144052734375,0.3015294671058655,0.017561858519911766,-0.0035887276753783226
1716979898151118300,4.324118408203125,0.2612135708332062,-0.006261184345930815,0.048333290964365005
1716979898160831700,4.333831787109375,0.2202867865562439,-0.045355409383773804,0.09109259396791458
1716979898170545000,4.343544921875,0.1811925619840622,-0.07467607408761978,0.11796987801790237
1716979898180258300,4.35325830078125,0.14820681512355804,-0.07589777559041977,0.12285665422677994
1716979898189971500,4.362971435546875,0.12255123257637024,-0.04107947647571564,0.11369394510984421
1716979898199684900,4.372684814453125,0.09750649333000183,0.01695101149380207,0.09475768357515335
1716979898209398000,4.38239794921875,0.08040276914834976,0.0853659063577652,0.07826480269432068
1716979898219111400,4.392111328125,0.07795938104391098,0.15927842259407043,0.07765395939350128
1716979898228824600,4.401824462890625,0.09384141117334366,0.2166980654001236,0.09903360903263092
1716979898238537700,4.411537841796875,0.11888615041971207,0.22647161781787872,0.1271325796842575
1716979898248251100,4.421251220703125,0.14942851662635803,0.18615570664405823,0.14790138602256775
1716979898257964300,4.43096435546875,0.18424680829048157,0.12262758612632751,0.15706409513950348
1716979898267677700,4.440677734375,0.20806984603405,0.04871506989002228,0.15584240853786469
1716979898277390800,4.450390869140625,0.19585290551185608,-0.03130592033267021,0.13079766929149628
1716979898287104300,4.460104248046875,0.13598987460136414,-0.10155335813760757,0.07093463838100433
1716979898296817400,4.4698173828125,0.043141089379787445,-0.14492350816726685,-0.017027366906404495
1716979898306530800,4.47953076171875,-0.05948125198483467,-0.1388150453567505,-0.10071343928575516
1716979898316244000,4.489243896484375,-0.15843850374221802,-0.08200624585151672,-0.1459161341190338
1716979898325957400,4.498957275390625,-0.23540526628494263,-0.0007635590736754239,-0.1220930963754654
1716979898335670500,4.50867041015625,-0.27022355794906616,0.10613471269607544,-0.02008160389959812
1716979898345383700,4.5183837890625,-0.27205610275268555,0.2160872220993042,0.13201937079429626
1716979898355097000,4.52809716796875,-0.27205610275268555,0.26495498418807983,0.26640576124191284
1716979898364810200,4.537810302734375,-0.28549474477767944,0.21181128919124603,0.32810133695602417
1716979898374523600,4.547523681640625,-0.31359371542930603,0.08964183181524277,0.2975589632987976
1716979898384236800,4.55723681640625,-0.37528929114341736,-0.06429167091846466,0.18821731209754944
1716979898393950200,4.5669501953125,-0.47852247953414917,-0.19684553146362305,0.03061871975660324
1716979898403663400,4.576663330078125,-0.5829773545265198,-0.2670929729938507,-0.13003410398960114
1716979898413376800,4.586376708984375,-0.6513922214508057,-0.31657159328460693,-0.2662530541419983
1716979898423090000,4.59608984375,-0.6825454831123352,-0.40819868445396423,-0.3799470067024231
1716979898432803300,4.60580322265625,-0.6874322295188904,-0.520594596862793,-0.46607646346092224
1716979898442516500,4.6155166015625,-0.6709393858909607,-0.5615213513374329,-0.5076140761375427
1716979898452230000,4.62522998046875,-0.6477271914482117,-0.4955498278141022,-0.4837910234928131
1716979898461943000,4.634943115234375,-0.6355102062225342,-0.3758237659931183,-0.4043808877468109
1716979898471656200,4.64465625,-0.6520031094551086,-0.27503398060798645,-0.29984965920448303
1716979898481369600,4.65436962890625,-0.6868214011192322,-0.22066856920719147,-0.20333577692508698
1716979898491082800,4.664082763671875,-0.7124769687652588,-0.2041756957769394,-0.14347274601459503
1716979898500796200,4.673796142578125,-0.7271373271942139,-0.21333840489387512,-0.13186664879322052
1716979898510509300,4.68350927734375,-0.7228613495826721,-0.22005772590637207,-0.1587439328432083
1716979898520222700,4.69322265625,-0.6953732371330261,-0.20722992718219757,-0.1990598440170288
1716979898529936000,4.702935791015625,-0.6397861242294312,-0.1626380831003189,-0.22960221767425537
1716979898539649300,4.712649169921875,-0.5536566972732544,-0.07650861889123917,-0.22227205336093903
1716979898549362400,4.722362548828125,-0.4485909640789032,0.04932591691613197,-0.17035003006458282
1716979898559075800,4.732075927734375,-0.33802759647369385,0.20020519196987152,-0.07627955079078674
1716979898568789000,4.7417890625,-0.23051849007606506,0.34192174673080444,0.044668205082416534
1716979898578502400,4.75150244140625,-0.13766969740390778,0.44820916652679443,0.16989189386367798
1716979898588215600,4.761215576171875,-0.07047650218009949,0.5086830258369446,0.2737359404563904
1716979898597928700,4.7709287109375,-0.027717193588614464,0.5288410186767578,0.3488701283931732
1716979898607642000,4.78064208984375,-0.010002624243497849,0.5141806602478027,0.38491013646125793
1716979898617355300,4.790355224609375,-0.010613471269607544,0.476308137178421,0.38491013646125793
1716979898627068700,4.800068603515625,-0.02160872146487236,0.4225535988807678,0.3500918447971344
1716979898636781800,4.80978173828125,-0.03871244564652443,0.35536038875579834,0.2865637242794037
1716979898646495200,4.8194951171875,-0.05337277799844742,0.28572380542755127,0.2071535736322403
1716979898656208400,4.82920849609375,-0.05948125198483467,0.21975229680538177,0.1289651244878769
1716979898665921800,4.838921875,-0.056427016854286194,0.15988926589488983,0.06360447406768799
1716979898675635000,4.848635009765625,-0.049707695841789246,0.10674555599689484,0.015958385542035103
1716979898685348400,4.858348388671875,-0.041766680777072906,0.050547610968351364,-0.0164165198802948
1716979898695061500,4.8680615234375,-0.03687990456819534,-0.023364907130599022,-0.043293800204992294
1716979898704774700,4.877774658203125,-0.031382277607917786,-0.11804623156785965,-0.07139277458190918
1716979898714488000,4.887488037109375,-0.022219568490982056,-0.21822518110275269,-0.10071343928575516
1716979898724201500,4.897201416015625,-0.008780929259955883,-0.31657159328460693,-0.12392564117908478
1716979898733914600,4.90691455078125,0.0016034740256145597,-0.4246915578842163,-0.13858596980571747
1716979898743628000,4.9166279296875,0.0009926267666742206,-0.5572454333305359,-0.15630054473876953
1716979898753341200,4.926341064453125,-0.015500249341130257,-0.7014053463935852,-0.19172967970371246
1716979898763054300,4.936054443359375,-0.0051158457063138485,-0.8773293495178223,-0.22960221767425537
1716979898772767700,4.945767822265625,0.009544488042593002,-1.0245435237884521,-0.28457847237586975
1716979898782481000,4.95548095703125,-0.0014507622690871358,-1.0740221738815308,-0.3456631898880005
1716979898792194300,4.9651943359375,-0.012446013279259205,-0.9970554113388062,-0.36154523491859436
1716979898801907500,4.974907470703125,0.008933641016483307,-0.7545490860939026,-0.29984965920448303
1716979898811620900,4.984620849609375,0.0877329409122467,-0.34161633253097534,-0.15568970143795013
1716979898821334000,4.994333984375,0.21051323413848877,0.13056860864162445,0.04161396995186806
1716979898831047400,5.00404736328125,0.3358132839202881,0.5398362874984741,0.2321983128786087
1716979898840760600,5.013760498046875,0.4408790171146393,0.8269344568252563,0.3647521734237671
1716979898850474000,5.023473876953125,0.5044071078300476,0.9655967950820923,0.4130091071128845
1716979898860187100,5.033187255859375,0.49952033162117004,0.9852202534675598,0.3751365840435028
1716979898869900500,5.042900634765625,0.43538138270378113,0.9100096821784973,0.2731250822544098
1716979898879613700,5.05261376953125,0.33764582872390747,0.7774558663368225,0.13812783360481262
1716979898889326800,5.062326904296875,0.23983390629291534,0.6241331696510315,0.007406522985547781
1716979898899040300,5.072040283203125,0.15981291234493256,0.4653128981590271,-0.07383616268634796
1716979898908753400,5.08175341796875,0.09750649333000183,0.31626617908477783,-0.07139277458190918
1716979898918466800,5.091466796875,0.05413633957505226,0.2148655205965042,0.020845163613557816
1716979898928180200,5.10118017578125,0.05047125369310379,0.17271706461906433,0.1680593490600586
1716979898937893400,5.110893310546875,0.11277767270803452,0.17027367651462555,0.3244362473487854
1716979898947606800,5.120606689453125,0.21784339845180511,0.19531841576099396,0.45027077198028564
1716979898957320000,5.13031982421875,0.32046574354171753,0.24601873755455017,0.5113555192947388
1716979898967033000,5.140033203125,0.39140036702156067,0.31321191787719727,0.4838673770427704
1716979898976746500,5.14974658203125,0.4115583300590515,0.3480302393436432,0.3629196286201477
1716979898986459600,5.159459716796875,0.3736858069896698,0.3107685446739197,0.1808871477842331
1716979898996173000,5.169173095703125,0.2960318624973297,0.21853061020374298,-0.008475505746901035
1716979899005886200,5.17888623046875,0.21356746554374695,0.10735640674829483,-0.14408360421657562
1716979899015599600,5.188599609375,0.14820681512355804,-0.0038177953101694584,-0.1868429034948349
1716979899025312800,5.198312744140625,0.10544750839471817,-0.10888352245092392,-0.1343100368976593
1716979899035026200,5.208026123046875,0.08651123940944672,-0.2029540091753006,-0.007253811229020357
1716979899044739300,5.2177392578125,0.09200886636972427,-0.2683146595954895,0.14606885612010956
1716979899054452700,5.22745263671875,0.11277767270803452,-0.30374380946159363,0.2835094928741455
1716979899064166000,5.237165771484375,0.13476817309856415,-0.34100547432899475,0.3751365840435028
1716979899073879300,5.24687939453125,0.1555369794368744,-0.40575528144836426,0.4117874205112457
1716979899083592400,5.256592529296875,0.18424680829048157,-0.488219678401947,0.3916294574737549
1716979899093305900,5.266305908203125,0.2184542566537857,-0.5590779781341553,0.3262687921524048
1716979899103019000,5.27601904296875,0.2459423840045929,-0.5841227173805237,0.23830679059028625
1716979899112732400,5.285732421875,0.2575484812259674,-0.5645755529403687,0.14667969942092896
1716979899122445600,5.295445556640625,0.24899661540985107,-0.5083776116371155,0.05810684710741043
1716979899132159000,5.305158935546875,0.23067119717597961,-0.4124746024608612,-0.01763821393251419
1716979899141872000,5.3148720703125,0.2062373012304306,-0.28664007782936096,-0.07689040154218674
1716979899151585500,5.32458544921875,0.1805817186832428,-0.14858859777450562,-0.1220930963754654
1716979899161298700,5.334298583984375,0.16103461384773254,-0.019088976085186005,-0.15080291032791138
1716979899171012000,5.34401220703125,0.15798036754131317,0.07742489129304886,-0.1599656194448471
1716979899180725200,5.353725341796875,0.16958646476268768,0.12079504877328873,-0.1483595222234726
1716979899190438700,5.363438720703125,0.18730103969573975,0.10918894410133362,-0.11598462611436844
1716979899200151800,5.37315185546875,0.20379391312599182,0.06765133142471313,-0.0683385357260704
1716979899209865200,5.382865234375,0.20806984603405,0.027946261689066887,-0.0164165198802948
1716979899219578400,5.392578369140625,0.19951798021793365,0.010842538438737392,0.03061871975660324
1716979899229291800,5.402291748046875,0.17691664397716522,0.0261137206107378,0.0752105712890625
1716979899239005000,5.4120048828125,0.13354648649692535,0.062153708189725876,0.11125055700540543
1716979899248718300,5.42171826171875,0.07124006003141403,0.09452861547470093,0.1259108930826187
1716979899258431500,5.431431396484375,0.0034360159188508987,0.111021488904953,0.11063970625400543
1716979899268145000,5.441144775390625,-0.047264307737350464,0.12201674282550812,0.07887565344572067
1716979899277858000,5.450858154296875,-0.07658497244119644,0.1238492801785469,0.049554985016584396
1716979899287571500,5.460571533203125,-0.09368869662284851,0.10185877978801727,0.03855973482131958
1716979899297284600,5.47028466796875,-0.10346225649118423,0.042606595903635025,0.05016583204269409
1716979899306998000,5.479998046875,-0.09857547283172607,-0.047798797488212585,0.0880383625626564
1716979899316711200,5.489711181640625,-0.08574768155813217,-0.13392825424671173,0.13690614700317383
1716979899326424600,5.499424560546875,-0.08330429345369339,-0.19379130005836487,0.17661121487617493
1716979899336137700,5.5091376953125,-0.09796462953090668,-0.2163926362991333,0.19738002121448517
1716979899345851100,5.51885107421875,-0.12545275688171387,-0.2151709496974945,0.20104511082172394
1716979899355564300,5.528564208984375,-0.16576866805553436,-0.1901262104511261,0.18699561059474945
1716979899365277700,5.538277587890625,-0.22379916906356812,-0.125987246632576,0.16134002804756165
1716979899374990800,5.547990966796875,-0.29526829719543457,-0.023975754156708717,0.13018682599067688
1716979899384704300,5.557704345703125,-0.36368319392204285,0.08842013776302338,0.0892600566148758
1716979899394417400,5.56741748046875,-0.41377267241477966,0.1776038408279419,0.036727190017700195
1716979899404130800,5.577130859375,-0.43881741166114807,0.2313583940267563,-0.018249060958623886
1716979899413844000,5.586843994140625,-0.449812650680542,0.24601873755455017,-0.06406260281801224
1716979899423557000,5.59655712890625,-0.44309332966804504,0.2545706033706665,-0.09765920788049698
1716979899433270500,5.6062705078125,-0.38689538836479187,0.2698417901992798,-0.11415208131074905
1716979899442983700,5.615983642578125,-0.2928248941898346,0.26495498418807983,-0.12453648447990417
1716979899452697000,5.625697021484375,-0.20364120602607727,0.23258009552955627,-0.1477486789226532
1716979899462410500,5.635410400390625,-0.14194563031196594,0.22036315500736237,-0.19111883640289307
1716979899472123600,5.64512353515625,-0.1083490327000618,0.2692309319972992,-0.24426254630088806
1716979899481837000,5.654837158203125,-0.11445750296115875,0.32787227630615234,-0.30046048760414124
1716979899491550200,5.66455029296875,-0.1730988472700119,0.34131091833114624,-0.3578801453113556
1716979899501263400,5.674263427734375,-0.2628933787345886,0.3327590525150299,-0.41110020875930786
1716979899510976800,5.683976806640625,-0.3453577756881714,0.3217637836933136,-0.45508119463920593
1716979899520690000,5.69368994140625,-0.3936147093772888,0.2967190444469452,-0.49234288930892944
1716979899530403300,5.7034033203125,-0.40522080659866333,0.24724042415618896,-0.5216635465621948
1716979899540116700,5.71311669921875,-0.38933876156806946,0.17271706461906433,-0.5363239049911499
1716979899549830000,5.722829833984375,-0.35268792510032654,0.06398624926805496,-0.5375455617904663
1716979899559543300,5.732543212890625,-0.29954421520233154,-0.06917845457792282,-0.5296045541763306
1716979899569256400,5.74225634765625,-0.2378486543893814,-0.1889045089483261,-0.5088357925415039
1716979899578969900,5.751969970703125,-0.19020256400108337,-0.2664821147918701,-0.4734066128730774
1716979899588683000,5.76168310546875,-0.17676392197608948,-0.2951919436454773,-0.4343124032020569
1716979899598396400,5.771396484375,-0.20180866122245789,-0.2664821147918701,-0.4080459773540497
1716979899608109600,5.781109619140625,-0.24212458729743958,-0.18218518793582916,-0.4049917459487915
1716979899617823000,5.790822998046875,-0.2775537371635437,-0.07467607408761978,-0.42881476879119873
1716979899627536100,5.8005361328125,-0.30015507340431213,0.02733541466295719,-0.4703523814678192
1716979899637249500,5.81024951171875,-0.3062635362148285,0.10857810080051422,-0.5118899941444397
1716979899646962700,5.819962646484375,-0.29710084199905396,0.17332790791988373,-0.5363239049911499
1716979899656676000,5.829676025390625,-0.2665584683418274,0.21425467729568481,-0.5283828973770142
1716979899666389200,5.83938916015625,-0.20608459413051605,0.2160872220993042,-0.474017471075058
1716979899676102700,5.8491025390625,-0.12423106282949448,0.18615570664405823,-0.37322768568992615
1716979899685815800,5.85881591796875,-0.041766680777072906,0.14706148207187653,-0.22838051617145538
1716979899695529200,5.868529296875,0.02176143415272236,0.12079504877328873,-0.05123481526970863
1716979899705242400,5.878242431640625,0.057801421731710434,0.11590826511383057,0.13873867690563202
1716979899714955800,5.887955810546875,0.07001836597919464,0.1244601309299469,0.3122192919254303
1716979899724669000,5.8976689453125,0.06696412712335587,0.13179029524326324,0.44660571217536926
1716979899734382300,5.90738232421875,0.05474718660116196,0.12934690713882446,0.5339568853378296
1716979899744095700,5.917095703125,0.03214583545923233,0.10369132459163666,0.5651100873947144
1716979899753809000,5.926808837890625,0.004657710436731577,0.04016320779919624,0.5315134525299072
1716979899763522300,5.936522216796875,-0.01916533336043358,-0.06368082761764526,0.43866467475891113
1716979899773235500,5.9462353515625,-0.03504735976457596,-0.2029540091753006,0.30305659770965576
1716979899782948900,5.955948974609375,-0.041766680777072906,-0.36910444498062134,0.1546207070350647
1716979899792662000,5.965662109375,-0.03993413969874382,-0.5322006940841675,0.028786176815629005
1716979899802375400,5.97537548828125,-0.026495499536395073,-0.6342121958732605,-0.04940227046608925
1716979899812088600,5.985088623046875,0.00038177953683771193,-0.6598677635192871,-0.09032903611660004
1716979899821802000,5.994802001953125,0.04008685052394867,-0.6207735538482666,-0.10498937219381332
1716979899831515100,6.00451513671875,0.08101361989974976,-0.5071559548377991,-0.08910734206438065
1716979899841228500,6.014228515625,0.11094513535499573,-0.3208475112915039,-0.02924431301653385
1716979899850941700,6.023941650390625,0.1274380087852478,-0.06673506647348404,0.07765395939350128
1716979899860655000,6.033655029296875,0.13110309839248657,0.2313583940267563,0.21142950654029846
1716979899870368300,6.0433681640625,0.11705360561609268,0.4885250926017761,0.3268796503543854
1716979899880081700,6.05308154296875,0.09872818738222122,0.6259657144546509,0.38613182306289673
1716979899889794800,6.062794921875,0.09200886636972427,0.6198572516441345,0.38552096486091614
1716979899899508200,6.07250830078125,0.07673768699169159,0.4775298535823822,0.3390965759754181
1716979899909221400,6.082221435546875,0.041919391602277756,0.24662958085536957,0.27617931365966797
1716979899918934800,6.091934814453125,0.011377030052244663,-0.005650337319821119,0.22547899186611176
1716979899928648000,6.10164794921875,0.0034360159188508987,-0.21883602440357208,0.2047101855278015
1716979899938361300,6.111361328125,0.027259059250354767,-0.35261157155036926,0.22303560376167297
1716979899948074500,6.121074462890625,0.10361496359109879,-0.35322242975234985,0.2957264184951782
1716979899957788000,6.130787841796875,0.23555797338485718,-0.2536543309688568,0.4185067415237427
1716979899967501300,6.140501220703125,0.3859027624130249,-0.11865708231925964,0.5455629825592041
1716979899977214500,6.15021435546875,0.5141806602478027,0.01511846948415041,0.6158103942871094
1716979899986927900,6.159927978515625,0.5911474227905273,0.14767232537269592,0.5791595578193665
1716979899996641000,6.16964111328125,0.5942016839981079,0.24052110314369202,0.42339351773262024
1716979900006354400,6.1793544921875,0.5044071078300476,0.22280654311180115,0.18394137918949127
1716979900016067600,6.189067626953125,0.3271850645542145,0.09575030952692032,-0.07078192383050919
1716979900025781000,6.198781005859375,0.10850174725055695,-0.08628217875957489,-0.2943520247936249
1716979900035494100,6.208494140625,-0.082082599401474,-0.24754585325717926,-0.4605788290500641
1716979900045207600,6.21820751953125,-0.18287239968776703,-0.3318427801132202,-0.5454866290092468
1716979900054920700,6.227920654296875,-0.17798562347888947,-0.3208475112915039,-0.5375455617904663
1716979900064634000,6.237634033203125,-0.08086090534925461,-0.22494450211524963,-0.44103172421455383
1716979900074347300,6.24734716796875,0.07246175408363342,-0.072843536734581,-0.26930728554725647
1716979900084060700,6.257060791015625,0.23739051818847656,0.09391776472330093,-0.06284090876579285
1716979900093773800,6.26677392578125,0.36574479937553406,0.20570281147956848,0.11980241537094116
1716979900103487200,6.2764873046875,0.4274403750896454,0.2160872220993042,0.2334200143814087
1716979900113200600,6.28620068359375,0.43293800950050354,0.1360662281513214,0.26518407464027405
1716979900122913800,6.295913818359375,0.39140036702156067,0.007788302376866341,0.2315874695777893
1716979900132627200,6.305627197265625,0.32046574354171753,-0.13209572434425354,0.15584240853786469
1716979900142340400,6.31534033203125,0.24288813769817352,-0.24449162185192108,0.052609220147132874
1716979900152053800,6.3250537109375,0.18302510678768158,-0.2835858464241028,-0.061619218438863754
1716979900161767000,6.334766845703125,0.14942851662635803,-0.23716144263744354,-0.16790664196014404
1716979900171480300,6.344480224609375,0.13049224019050598,-0.13453911244869232,-0.24853847920894623
1716979900181193500,6.354193359375,0.12194038182497025,-0.008704573847353458,-0.29679539799690247
1716979900190907000,6.363906982421875,0.1286597102880478,0.1122431829571724,-0.3071798086166382
1716979900200620000,6.3736201171875,0.1402658075094223,0.20753535628318787,-0.28457847237586975
1716979900210333400,6.38333349609375,0.14576342701911926,0.2680092453956604,-0.24243000149726868
1716979900220046600,6.393046630859375,0.15003935992717743,0.2948864996433258,-0.18989713490009308
1716979900229760000,6.402760009765625,0.16164545714855194,0.28877803683280945,-0.12881241738796234
1716979900239473200,6.41247314453125,0.16958646476268768,0.25945737957954407,-0.05673243850469589
1716979900249186600,6.4221865234375,0.1653105467557907,0.22158484160900116,0.02817532978951931
1716979900258899700,6.431899658203125,0.14759597182273865,0.18249061703681946,0.11552648991346359
1716979900268613000,6.441613037109375,0.12377292662858963,0.15378080308437347,0.20287764072418213
1716979900278326500,6.451326416015625,0.0883437842130661,0.14034216105937958,0.2828986346721649
1716979900288039700,6.461039794921875,0.0492495596408844,0.14217470586299896,0.3494809865951538
1716979900297753000,6.470753173828125,0.022372281178832054,0.15744587779045105,0.405678927898407
1716979900307466200,6.48046630859375,0.023593975231051445,0.1904316395521164,0.458822637796402
1716979900317179600,6.4901796875,0.060244809836149216,0.2313583940267563,0.5064687132835388
1716979900326892800,6.499892822265625,0.12071868777275085,0.2533488869667053,0.5364002585411072
1716979900336606200,6.509606201171875,0.19585290551185608,0.2307475507259369,0.5290700793266296
1716979900346319400,6.5193193359375,0.2722088098526001,0.15683503448963165,0.4826456904411316
1716979900356032800,6.52903271484375,0.3229091465473175,0.037108972668647766,0.4026246964931488
1716979900365746200,6.53874609375,0.3100813329219818,-0.10705098509788513,0.28839626908302307
1716979900375459300,6.548459228515625,0.22395187616348267,-0.2817533016204834,0.1424037665128708
1716979900385172700,6.5581728515625,0.08101361989974976,-0.4656183123588562,-0.026190076023340225
1716979900394886000,6.567885986328125,-0.09307785332202911,-0.6274928450584412,-0.19295138120651245
1716979900404599300,6.577599365234375,-0.2769428789615631,-0.7569924592971802,-0.3334462344646454
1716979900414312400,6.5873125,-0.44187164306640625,-0.8315158486366272,-0.42881476879119873
1716979900424025900,6.59702587890625,-0.5554892420768738,-0.8058602213859558,-0.45263782143592834
1716979900433739000,6.606739013671875,-0.6055787205696106,-0.6678087711334229,-0.39949411153793335
1716979900443452400,6.616452392578125,-0.6055787205696106,-0.4503471553325653,-0.29862794280052185
1716979900453165800,6.626165771484375,-0.5622085332870483,-0.1882936656475067,-0.1862320601940155
1716979900462879000,6.63587890625,-0.4858526289463043,0.06826218217611313,-0.10132429003715515
1716979900472592400,6.64559228515625,-0.4070533514022827,0.24601873755455017,-0.07383616268634796
1716979900482305500,6.655305419921875,-0.36123979091644287,0.3058817684650421,-0.1080436110496521
1716979900492019000,6.66501904296875,-0.347801148891449,0.2954973578453064,-0.17584764957427979
1716979900501732000,6.674732177734375,-0.36429402232170105,0.25090551376342773,-0.2515927255153656
1716979900511445500,6.684445556640625,-0.41499435901641846,0.15988926589488983,-0.32245099544525146
1716979900521158700,6.69415869140625,-0.5139515995979309,0.014507622458040714,-0.38727715611457825
1716979900530872000,6.7038720703125,-0.6373427510261536,-0.12171131372451782,-0.4434750974178314
1716979900540585500,6.71358544921875,-0.7246938943862915,-0.17180079221725464,-0.4825693368911743
1716979900550298600,6.723298583984375,-0.7448518872261047,-0.14858859777450562,-0.49295374751091003
1716979900560012000,6.733011962890625,-0.6996491551399231,-0.058183200657367706,-0.45324867963790894
1716979900569725200,6.74272509765625,-0.5860316157341003,0.10369132459163666,-0.3456631898880005
1716979900579438600,6.7524384765625,-0.41682690382003784,0.2930539846420288,-0.17584764957427979
1716979900589151700,6.76215185546875,-0.22318831086158752,0.46042612195014954,0.03061871975660324
1716979900598865200,6.771865234375,-0.04115583375096321,0.5648810267448425,0.23525254428386688
1716979900608578300,6.781578369140625,0.11583191156387329,0.589314877986908,0.4117874205112457
1716979900618291700,6.791291748046875,0.2337254285812378,0.5557183027267456,0.5480063557624817
1716979900628004900,6.8010048828125,0.30336201190948486,0.4891359508037567,0.6390225887298584
1716979900637718300,6.81071826171875,0.33023929595947266,0.3987305462360382,0.6805602312088013
1716979900647431700,6.820431640625,0.3222982883453369,0.2918322682380676,0.6658998727798462
1716979900657144800,6.830144775390625,0.2825932204723358,0.18126893043518066,0.5883222818374634
1716979900666858200,6.839858154296875,0.22334103286266327,0.08292251825332642,0.44782739877700806
1716979900676571400,6.8495712890625,0.16164545714855194,0.007788302376866341,0.25479966402053833
1716979900686284800,6.859284912109375,0.10422581434249878,-0.049020491540431976,0.02817532978951931
1716979900695998000,6.868998046875,0.05535803362727165,-0.09483403712511063,-0.20455747842788696
1716979900705711400,6.87871142578125,0.010766183026134968,-0.13209572434425354,-0.41354358196258545
1716979900715424800,6.8884248046875,-0.027717193588614464,-0.16996824741363525,-0.5674771070480347
1716979900725138000,6.898137939453125,-0.060092099010944366,-0.19806721806526184,-0.6426113247871399
1716979900734851300,6.907851318359375,-0.08758022636175156,-0.20600824058055878,-0.6255075931549072
1716979900744564500,6.917564453125,-0.10101886838674545,-0.18401773273944855,-0.5161659121513367
1716979900754278000,6.92727783203125,-0.09002361446619034,-0.12843063473701477,-0.33711132407188416
1716979900763991000,6.936990966796875,-0.05825955793261528,-0.05268557742238045,-0.13980767130851746
1716979900773704400,6.946704345703125,-0.012446013279259205,0.009009997360408306,0.023899398744106293
1716979900783417900,6.95641796875,0.03458922728896141,0.025502873584628105,0.12041326612234116
1716979900793131000,6.966131103515625,0.07979192584753036,-0.001374406274408102,0.14729054272174835
1716979900802844400,6.975844482421875,0.11338852345943451,-0.0594048947095871,0.1271325796842575
1716979900812557600,6.9855576171875,0.1286597102880478,-0.1253764033317566,0.0745997205376625
1716979900822271000,6.99527099609375,0.13049224019050598,-0.18218518793582916,-0.0017561858985573053
1716979900831984000,7.004984130859375,0.1292705535888672,-0.22250111401081085,-0.08605311065912247
1716979900841697500,7.014697509765625,0.12255123257637024,-0.23532891273498535,-0.1611873209476471
1716979900851411000,7.024410888671875,0.10666920244693756,-0.2047865390777588,-0.21066594123840332
1716979900861124000,7.0341240234375,0.07734853774309158,-0.12720894813537598,-0.22960221767425537
1716979900870837500,7.04383740234375,0.04558447748422623,-0.020310672000050545,-0.22166119515895844
1716979900880550700,7.053550537109375,0.02298312820494175,0.10185877978801727,-0.18989713490009308
1716979900890264000,7.06326416015625,0.015652960166335106,0.21242213249206543,-0.1465269923210144
1716979900899977200,7.072977294921875,0.018096350133419037,0.28755635023117065,-0.09399411827325821
1716979900909690600,7.082690673828125,0.03214583545923233,0.34375429153442383,-0.03290939703583717
1716979900919403800,7.09240380859375,0.05474718660116196,0.3865135908126831,0.023288551717996597
1716979900929117200,7.1021171875,0.06818582862615585,0.3742966651916504,0.052609220147132874
1716979900938830600,7.11183056640625,0.06329904496669769,0.2948864996433258,0.048333290964365005
1716979900948543700,7.121543701171875,0.04375193640589714,0.1757712960243225,0.0293970238417387
1716979900958257200,7.131257080078125,0.02298312820494175,0.04932591691613197,0.0165692325681448
1716979900967970300,7.14097021484375,0.022372281178832054,-0.06123743951320648,0.025121092796325684
1716979900977683700,7.15068359375,0.04558447748422623,-0.15347537398338318,0.05199837312102318
1716979900987397000,7.160397216796875,0.0883437842130661,-0.19806721806526184,0.09170344471931458
1716979900997110300,7.1701103515625,0.16225630044937134,-0.12781979143619537,0.14851224422454834
1716979901006823700,7.17982373046875,0.25143998861312866,0.018783552572131157,0.21265120804309845
1716979901016536800,7.189536865234375,0.3094705045223236,0.1782146841287613,0.2609081268310547
1716979901026250200,7.199250244140625,0.3076379597187042,0.31382277607917786,0.26396235823631287
1716979901035963400,7.20896337890625,0.2563267946243286,0.40606072545051575,0.21020781993865967
1716979901045676800,7.2186767578125,0.17386239767074585,0.44332239031791687,0.10636378079652786
1716979901055390200,7.22839013671875,0.07368344813585281,0.37918344140052795,-0.026190076023340225
1716979901065103400,7.238103271484375,-0.02405211143195629,0.23441264033317566,-0.1587439328432083
1716979901074816800,7.247816650390625,-0.07108735293149948,0.07620319724082947,-0.2387649267911911
1716979901084530000,7.257530029296875,-0.04421006888151169,-0.051463883370161057,-0.23204560577869415
1716979901094243300,7.267243408203125,0.043141089379787445,-0.13026317954063416,-0.14164020121097565
1716979901103956500,7.27695654296875,0.1653105467557907,-0.13576079905033112,0.0037414394319057465
1716979901113670000,7.286669921875,0.30641624331474304,-0.06184828653931618,0.16072918474674225
1716979901123383300,7.29638330078125,0.4408790171146393,0.023059483617544174,0.27801185846328735
1716979901133096400,7.306096435546875,0.534338653087616,0.06581879407167435,0.33115556836128235
1716979901142809900,7.315809814453125,0.5654918551445007,0.06948387622833252,0.32871219515800476
1716979901152523000,7.32552294921875,0.5263976454734802,0.017561858519911766,0.26640576124191284
1716979901162236400,7.335236328125,0.43354883790016174,-0.10094250738620758,0.14362546801567078
1716979901171949800,7.34494970703125,0.30397287011146545,-0.2652604281902313,-0.029855160042643547
1716979901181663000,7.3546630859375,0.1665322333574295,-0.411863774061203,-0.22838051617145538
1716979901191376400,7.36437646484375,0.044362783432006836,-0.49677154421806335,-0.41048935055732727
1716979901201089500,7.374089599609375,-0.06192464008927345,-0.5364766120910645,-0.554649293422699
1716979901210803000,7.383802978515625,-0.13889139890670776,-0.5541911721229553,-0.652384877204895
1716979901220516400,7.393516357421875,-0.16882291436195374,-0.5407525300979614,-0.6908682584762573
1716979901230229500,7.4032294921875,-0.1462215632200241,-0.48577627539634705,-0.6670452356338501
1716979901239943000,7.41294287109375,-0.08758022636175156,-0.3880407214164734,-0.5919110178947449
1716979901249656000,7.422656005859375,-0.017332790419459343,-0.23532891273498535,-0.4831801950931549
1716979901259369500,7.432369384765625,0.04802786558866501,-0.049020491540431976,-0.3603235185146332
1716979901269082600,7.44208251953125,0.08712209016084671,0.12140589207410812,-0.2405974566936493
1716979901278796000,7.451796142578125,0.08345700800418854,0.22524993121623993,-0.13919681310653687
1716979901288509400,7.461509521484375,0.039476003497838974,0.24540787935256958,-0.07078192383050919
1716979901298222600,7.47122265625,-0.018554486334323883,0.19287502765655518,-0.03290939703583717
1716979901307936000,7.48093603515625,-0.08391514420509338,0.08353336155414581,-0.012751436792314053
1716979901317649200,7.490649169921875,-0.15110833942890167,-0.07040014863014221,0.0025197449140250683
1716979901327362600,7.500362548828125,-0.20608459413051605,-0.2414373755455017,0.022677704691886902
1716979901337075700,7.51007568359375,-0.2256316989660263,-0.37704548239707947,0.06055023521184921
1716979901346789000,7.5197890625,-0.20303036272525787,-0.43385425209999084,0.12468919903039932
1716979901356502500,7.52950244140625,-0.14377817511558533,-0.42041563987731934,0.20837527513504028
1716979901366215700,7.539215576171875,-0.049707695841789246,-0.3623851239681244,0.2981698215007782
1716979901375929000,7.54892919921875,0.06513158977031708,-0.2695363461971283,0.38246673345565796
1716979901385642200,7.558642333984375,0.16286714375019073,-0.1650814712047577,0.43499961495399475
1716979901395355600,7.568355712890625,0.21234577894210815,-0.09300149232149124,0.4301128387451172
1716979901405069000,7.578069091796875,0.21478916704654694,-0.05390727147459984,0.36902809143066406
1716979901414782200,7.5877822265625,0.18913358449935913,-0.008093725889921188,0.27862271666526794
1716979901424495600,7.59749560546875,0.14698512852191925,0.04321744292974472,0.1918824017047882
1716979901434209000,7.607208984375,0.10117157548666,0.06398624926805496,0.1271325796842575
1716979901443922200,7.616922119140625,0.06085565686225891,0.06154286116361618,0.09964445978403091
1716979901453635600,7.626635498046875,0.0358109213411808,0.07681404054164886,0.11674818396568298
1716979901463348700,7.6363486328125,0.031534988433122635,0.11712995916604996,0.17233528196811676
1716979901473062100,7.646062255859375,0.02970244735479355,0.16660858690738678,0.2468586415052414
1716979901482775300,7.655775390625,-0.0008399150101467967,0.1892099380493164,0.2969481348991394
1716979901492488700,7.66548876953125,-0.06681142002344131,0.15866757929325104,0.2816769480705261
1716979901502202000,7.6752021484375,-0.1456107199192047,0.09086353331804276,0.19066070020198822
1716979901511915300,7.684915283203125,-0.22196662425994873,0.007177455350756645,0.04283566400408745
1716979901521628700,7.694628662109375,-0.2940466105937958,-0.07895200699567795,-0.1361425817012787
1716979901531341800,7.704341796875,-0.36551573872566223,-0.14553436636924744,-0.3151208162307739
1716979901541055200,7.71405517578125,-0.4345414638519287,-0.18035265803337097,-0.4679090082645416
1716979901550768600,7.7237685546875,-0.5066214203834534,-0.17302247881889343,-0.5876350402832031
1716979901560481800,7.733481689453125,-0.5829773545265198,-0.1650814712047577,-0.6768187880516052
1716979901570195200,7.7431953125,-0.6562790274620056,-0.19989976286888123,-0.7348492741584778
1716979901579908400,7.752908447265625,-0.7008708715438843,-0.24510246515274048,-0.7421793937683105
1716979901589621800,7.762621826171875,-0.6965949535369873,-0.2677038013935089,-0.684148907661438
1716979901599335200,7.772335205078125,-0.6477271914482117,-0.2560977041721344,-0.5656445622444153
1716979901609048300,7.78204833984375,-0.5658736228942871,-0.2017323076725006,-0.395218163728714
1716979901618761700,7.79176171875,-0.47119230031967163,-0.1253764033317566,-0.19111883640289307
1716979901628475000,7.801474853515625,-0.3716242015361786,-0.04413371533155441,0.0165692325681448
1716979901638188300,7.811188232421875,-0.27266693115234375,0.03955236077308655,0.19799086451530457
1716979901647901700,7.820901611328125,-0.18103985488414764,0.11957334727048874,0.3274904787540436
1716979901657614800,7.83061474609375,-0.11995512992143631,0.18004722893238068,0.3897969126701355
1716979901667328300,7.840328369140625,-0.09185615926980972,0.22036315500736237,0.38002336025238037
1716979901677041400,7.85004150390625,-0.09063446521759033,0.2289150059223175,0.29389387369155884
1716979901686754800,7.8597548828125,-0.11201411485671997,0.20753535628318787,0.13446275889873505
1716979901696468200,7.86946826171875,-0.15843850374221802,0.18310146033763885,-0.08055548369884491
1716979901706181400,7.879181396484375,-0.22135578095912933,0.1763821393251419,-0.31389912962913513
1716979901715894800,7.888894775390625,-0.28793811798095703,0.19348587095737457,-0.522885262966156
1716979901725608000,7.89860791015625,-0.341081827878952,0.22463907301425934,-0.6688777208328247
1716979901735321300,7.9083212890625,-0.371013343334198,0.2570139765739441,-0.7415685653686523
1716979901745034800,7.91803466796875,-0.3826194405555725,0.2838912606239319,-0.7507312893867493
1716979901754748000,7.927747802734375,-0.3716242015361786,0.2973299026489258,-0.7183563709259033
1716979901764461300,7.93746142578125,-0.3313082754611969,0.28755635023117065,-0.660936713218689
1716979901774174500,7.947174560546875,-0.26045000553131104,0.2551814317703247,-0.5815265774726868
1716979901783888000,7.956887939453125,-0.16760121285915375,0.20509196817874908,-0.4850127100944519
1716979901793601300,7.966601318359375,-0.07047650218009949,0.14645062386989594,-0.37506023049354553
1716979901803314400,7.976314453125,0.010155336000025272,0.08842013776302338,-0.2631988227367401
1716979901813027800,7.98602783203125,0.07001836597919464,0.026724567636847496,-0.17096087336540222
1716979901822741000,7.995740966796875,0.11277767270803452,-0.024586603045463562,-0.11537377536296844
1716979901832454400,8.005454345703125,0.1268271654844284,-0.017867282032966614,-0.06406260281801224
1716979901842167800,8.015167724609375,0.10850174725055695,-0.00259610079228878,-0.008475505746901035
1716979901851881000,8.024880859375,0.08345700800418854,-0.028251685202121735,0.027564482763409615
1716979901861594400,8.034594482421875,0.08284615725278854,-0.06551336497068405,0.035505495965480804
1716979901871307800,8.044307861328125,0.10178242623806,-0.07345438003540039,0.028786176815629005
1716979901881021000,8.05402099609375,0.126216322183609,-0.051463883370161057,0.022066857665777206
1716979901890734300,8.063734375,0.15065020322799683,-0.004428642801940441,0.040392275899648666
1716979901900447500,8.073447509765625,0.1787491738796234,0.059710320085287094,0.09903360903263092
1716979901910161000,8.083160888671875,0.2044047713279724,0.12934690713882446,0.19066070020198822
1716979901919874300,8.092874267578125,0.22150848805904388,0.2166980654001236,0.30366745591163635
1716979901929587500,8.10258740234375,0.231282040476799,0.3223746418952942,0.4166741967201233
1716979901939300900,8.11230078125,0.22822780907154083,0.4115583300590515,0.4960843324661255
1716979901949014000,8.122013916015625,0.20929154753684998,0.4671454429626465,0.5254049897193909
1716979901958727400,8.1317275390625,0.17569494247436523,0.49524441361427307,0.5089121460914612
1716979901968440800,8.14144091796875,0.14332003891468048,0.48608171939849854,0.46309858560562134
1716979901978154000,8.151154052734375,0.1274380087852478,0.4524851143360138,0.4142307937145233
1716979901987867400,8.160867431640625,0.12988139688968658,0.4146125912666321,0.3904077410697937
1716979901997580500,8.17058056640625,0.14332003891468048,0.3633013963699341,0.3867426812648773
1716979902007294000,8.1802939453125,0.16286714375019073,0.29916244745254517,0.3867426812648773
1716979902017007400,8.19000732421875,0.19707459211349487,0.23624517023563385,0.3647521734237671
1716979902026720500,8.199720458984375,0.2691545784473419,0.1519482582807541,0.29083964228630066
1716979902036434000,8.209433837890625,0.33268269896507263,0.11529742181301117,0.21081866323947906
1716979902046147300,8.219147216796875,0.3443651497364044,0.1244601309299469,0.17111359536647797
1716979902055860500,8.228860595703125,0.3370349705219269,0.09269607067108154,0.13812783360481262
1716979902065574000,8.238573974609375,0.33023929595947266,0.0261137206107378,0.1020878478884697
1716979902075287000,8.248287109375,0.30397287011146545,-0.11499200016260147,0.06116108223795891
1716979902085000400,8.25800048828125,0.22822780907154083,-0.3465031087398529,0.007406522985547781
1716979902094713900,8.2677138671875,0.10972344130277634,-0.5725166201591492,-0.06711684167385101
1716979902104427000,8.277427001953125,0.033978380262851715,-0.7783721089363098,-0.11415208131074905
1716979902114140400,8.287140380859375,0.015042114071547985,-0.8596147894859314,-0.18012358248233795
1716979902123853600,8.296853515625,-0.0014507622690871358,-0.6971294283866882,-0.2247154414653778
1716979902133567000,8.30656689453125,0.02053973823785782,-0.4387410581111908,-0.22349373996257782
1716979902143280400,8.3162802734375,0.09017632901668549,-0.1754658818244934,-0.17157171666622162
1716979902152993500,8.32599365234375,0.2050156146287918,0.020005248486995697,-0.09277242422103882
1716979902162707000,8.33570703125,0.3253525197505951,0.1501157134771347,-0.0023670331574976444
1716979902172420400,8.34542041015625,0.40361732244491577,0.2160872220993042,0.09536852687597275
1716979902182133500,8.355133544921875,0.43477052450180054,0.18554484844207764,0.18882815539836884
1716979902191847000,8.364846923828125,0.45920443534851074,0.042606595903635025,0.2309766262769699
1716979902201560000,8.37456005859375,0.48486000299453735,-0.1375933438539505,0.1937149316072464
1716979902211273500,8.3842734375,0.48241662979125977,-0.2652604281902313,0.10819631814956665
1716979902220987000,8.39398681640625,0.43415969610214233,-0.30740886926651,0.009239064529538155
1716979902230700000,8.403699951171875,0.3590254783630371,-0.26342788338661194,-0.07933378964662552
1716979902240413400,8.413413330078125,0.2966426908969879,-0.1656923145055771,-0.13247749209403992
1716979902250126600,8.423126708984375,0.259991854429245,-0.04718795046210289,-0.1343100368976593
1716979902259840000,8.432840087890625,0.24288813769817352,0.07986827939748764,-0.09093988686800003
1716979902269553400,8.442553466796875,0.23616881668567657,0.1910424828529358,-0.020692450925707817
1716979902279266600,8.4522666015625,0.23494713008403778,0.2564031481742859,0.052609220147132874
1716979902288980000,8.46197998046875,0.2337254285812378,0.2808370292186737,0.1149156391620636
1716979902298693400,8.471693359375,0.22456271946430206,0.28999972343444824,0.15828579664230347
1716979902308406500,8.481406494140625,0.20257222652435303,0.3083251416683197,0.17355698347091675
1716979902318120000,8.491119873046875,0.16286714375019073,0.3309265077114105,0.1533990204334259
1716979902327833300,8.500833251953125,0.10972344130277634,0.346808522939682,0.09353598952293396
1716979902337546500,8.51054638671875,0.05474718660116196,0.36574479937553406,0.008017370477318764
1716979902347260000,8.520260009765625,0.0034360159188508987,0.37002071738243103,-0.07933378964662552
1716979902356973000,8.52997314453125,-0.0423775278031826,0.32603973150253296,-0.14102935791015625
1716979902366686500,8.5396865234375,-0.07169819623231888,0.24968381226062775,-0.15568970143795013
1716979902376400000,8.54939990234375,-0.08452598750591278,0.18126893043518066,-0.12759071588516235
1716979902386113000,8.559113037109375,-0.08574768155813217,0.11712995916604996,-0.08849649876356125
1716979902395826400,8.568826416015625,-0.08086090534925461,0.04504998400807381,-0.07566870748996735
1716979902405539800,8.578539794921875,-0.07658497244119644,-0.03802524134516716,-0.09765920788049698
1716979902415253000,8.5882529296875,-0.09063446521759033,-0.149199441075325,-0.14347274601459503
1716979902424966400,8.59796630859375,-0.13766969740390778,-0.2707580327987671,-0.20272493362426758
1716979902434679600,8.607679443359375,-0.20547375082969666,-0.34100547432899475,-0.2662530541419983
1716979902444393000,8.61739306640625,-0.2769428789615631,-0.3434488773345947,-0.3169533610343933
1716979902454106400,8.6271064453125,-0.343525230884552,-0.3202366828918457,-0.3419981002807617
1716979902463819500,8.636819580078125,-0.39056047797203064,-0.282364159822464,-0.32367268204689026
1716979902473533000,8.646532958984375,-0.394225537776947,-0.2145601063966751,-0.24792763590812683
1716979902483246300,8.656246337890625,-0.3551313281059265,-0.10399674624204636,-0.11659546941518784
1716979902492959500,8.66595947265625,-0.3013767600059509,0.05726693198084831,0.04161396995186806
1716979902502673000,8.6756728515625,-0.26106083393096924,0.20814619958400726,0.1680593490600586
1716979902512386300,8.68538623046875,-0.24640052020549774,0.29916244745254517,0.217537984251976
1716979902522099500,8.695099365234375,-0.2378486543893814,0.33886751532554626,0.18882815539836884
1716979902531812900,8.704812744140625,-0.2274642437696457,0.35169529914855957,0.10697462409734726
1716979902541526000,8.714526123046875,-0.20547375082969666,0.3443651497364044,0.0025197449140250683
1716979902551239400,8.724239501953125,-0.17676392197608948,0.3205420970916748,-0.0946049690246582
1716979902560952800,8.733952880859375,-0.16637952625751495,0.2930539846420288,-0.16790664196014404
1716979902570666000,8.743666015625,-0.20180866122245789,0.2441861927509308,-0.2247154414653778
1716979902580379400,8.75337939453125,-0.30931776762008667,0.12323843687772751,-0.2888543903827667
1716979902590092500,8.763092529296875,-0.4864634871482849,-0.0844496339559555,-0.390942245721817
1716979902599806000,8.772805908203125,-0.6642200350761414,-0.3049654960632324,-0.5118899941444397
1716979902609519400,8.782519287109375,-0.7631772756576538,-0.47050508856773376,-0.6096255779266357
1716979902619232500,8.792232421875,-0.7705074548721313,-0.5706840753555298,-0.6322268843650818
1716979902628946000,8.80194580078125,-0.6776586771011353,-0.5651864409446716,-0.5393781065940857
1716979902638659300,8.811659423828125,-0.504788875579834,-0.43324342370033264,-0.3291703164577484
1716979902648372500,8.82137255859375,-0.28305134177207947,-0.22127941250801086,-0.04085041210055351
1716979902658086000,8.8310859375,-0.03443651273846626,0.024281177669763565,0.2755684554576874
1716979902667799300,8.84079931640625,0.19585290551185608,0.24052110314369202,0.5577799081802368
1716979902677512400,8.850512451171875,0.3755183517932892,0.3883461356163025,0.7532510161399841
1716979902687225900,8.860225830078125,0.4928010404109955,0.45798271894454956,0.8399913311004639
1716979902696939300,8.869939208984375,0.5435013771057129,0.4610369801521301,0.8363262414932251
1716979902706652400,8.87965234375,0.5270084738731384,0.4225535988807678,0.7660788297653198
1716979902716365800,8.88936572265625,0.44515493512153625,0.37979426980018616,0.6390225887298584
1716979902726079200,8.899079345703125,0.31924405694007874,0.34253260493278503,0.4673745036125183
1716979902735792400,8.90879248046875,0.17569494247436523,0.3083251416683197,0.2700708508491516
1716979902745505800,8.918505859375,0.0364217683672905,0.27595025300979614,0.07337802648544312
1716979902755219000,8.928218994140625,-0.08696937561035156,0.25029465556144714,-0.09399411827325821
1716979902764932400,8.937932373046875,-0.1877591758966446,0.22158484160900116,-0.21066594123840332
1716979902774645800,8.947645751953125,-0.26045000553131104,0.18737739324569702,-0.27175068855285645
1716979902784359000,8.95735888671875,-0.3056527078151703,0.1501157134771347,-0.2821350693702698
1716979902794072300,8.967072265625,-0.33863845467567444,0.10552386194467545,-0.25647950172424316
1716979902803785700,8.97678564453125,-0.3704025149345398,0.052990999072790146,-0.20822255313396454
1716979902813499000,8.986498779296875,-0.3985014855861664,-0.001374406274408102,-0.14225105941295624
1716979902823212300,8.99621240234375,-0.41621604561805725,-0.05024218559265137,-0.061619218438863754
1716979902832925400,9.005925537109375,-0.422324538230896,-0.08200624585151672,0.027564482763409615
1716979902842638800,9.015638916015625,-0.4131618142127991,-0.09422318637371063,0.11002886295318604
1716979902852352300,9.025352294921875,-0.38689538836479187,-0.12293300777673721,0.17783290147781372
1716979902862065400,9.0350654296875,-0.3459686040878296,-0.18585027754306793,0.23525254428386688
1716979902871778800,9.04477880859375,-0.2891598343849182,-0.29091599583625793,0.2853420376777649
1716979902881492200,9.0544921875,-0.23601610958576202,-0.44301697611808777,0.325047105550766
1716979902891205400,9.064205322265625,-0.2011978179216385,-0.5938962697982788,0.3384857475757599
1716979902900918800,9.073918701171875,-0.18165069818496704,-0.6861341595649719,0.3140518367290497
1716979902910632200,9.083632080078125,-0.1730988472700119,-0.6855233311653137,0.25235626101493835
1716979902920345300,9.093345458984375,-0.16637952625751495,-0.6036698222160339,0.17111359536647797
1716979902930058800,9.103058837890625,-0.15049749612808228,-0.4240806996822357,0.09414683282375336
1716979902939772000,9.11277197265625,-0.11812258511781693,-0.18218518793582916,0.03733803704380989
1716979902949485300,9.1224853515625,-0.07108735293149948,0.043828289955854416,0.000687203137204051
1716979902959198700,9.13219873046875,-0.025273805484175682,0.18493400514125824,-0.01763821393251419
1716979902968912000,9.141911865234375,0.004657710436731577,0.2313583940267563,-0.026190076023340225
1716979902978625300,9.151625244140625,0.01626380905508995,0.2148655205965042,-0.030466007068753242
1716979902988338700,9.161338623046875,0.01382041908800602,0.16050012409687042,-0.021303297951817513
1716979902998051800,9.1710517578125,0.008933641016483307,0.09575030952692032,0.0019088976550847292
1716979903007765200,9.18076513671875,0.018707197159528732,0.032222192734479904,0.048333290964365005
1716979903017478700,9.190478759765625,0.06085565686225891,-0.013591351918876171,0.1283542811870575
1716979903027191800,9.20019189453125,0.153704434633255,-0.022754060104489326,0.23830679059028625
1716979903036905200,9.2099052734375,0.29053422808647156,-0.00259610079228878,0.35742199420928955
1716979903046618600,9.21961865234375,0.4414898455142975,0.02367033064365387,0.4557684063911438
1716979903056331800,9.229331787109375,0.5709894895553589,0.05238015204668045,0.5052470564842224
1716979903066045200,9.239045166015625,0.6418477296829224,0.0981936976313591,0.48692160844802856
1716979903075758600,9.248758544921875,0.6375718116760254,0.16599774360656738,0.40751147270202637
1716979903085471700,9.2584716796875,0.5587725043296814,0.20692451298236847,0.2755684554576874
1716979903095185200,9.26818505859375,0.41949936747550964,0.17332790791988373,0.09231429547071457
1716979903104898300,9.277898193359375,0.2465532273054123,0.04810422286391258,-0.12759071588516235
1716979903114611700,9.28761181640625,0.08162446320056915,-0.12171131372451782,-0.33894386887550354
1716979903124325000,9.2973251953125,-0.02405211143195629,-0.23349636793136597,-0.4721849262714386
1716979903134038300,9.307038330078125,-0.049707695841789246,-0.24754585325717926,-0.49234288930892944
1716979903143751700,9.316751708984375,-0.002061609411612153,-0.16996824741363525,-0.40987852215766907
1716979903153465000,9.326465087890625,0.10422581434249878,-0.023975754156708717,-0.2644205093383789
1716979903163178200,9.33617822265625,0.23800136148929596,0.13973131775856018,-0.10071343928575516
1716979903172891600,9.3458916015625,0.35536038875579834,0.2576248347759247,0.031229566782712936
1716979903182605000,9.35560498046875,0.44637662172317505,0.30404922366142273,0.10697462409734726
1716979903192318200,9.365318115234375,0.5233433842658997,0.2845021188259125,0.12224581092596054
1716979903202031600,9.375031494140625,0.5923691391944885,0.19470755755901337,0.07398887723684311
1716979903211745000,9.3847451171875,0.6534538269042969,0.05115845799446106,-0.017027366906404495
1716979903221458200,9.394458251953125,0.6980457305908203,-0.09666658192873001,-0.11231953650712967
1716979903231171600,9.404171630859375,0.7133168578147888,-0.2029540091753006,-0.1727934181690216
1716979903240885000,9.413885009765625,0.6931589245796204,-0.25060009956359863,-0.1874537467956543
1716979903250598100,9.42359814453125,0.6455128192901611,-0.24693500995635986,-0.16851748526096344
1716979903260311600,9.4333115234375,0.5740436911582947,-0.20845162868499756,-0.13003410398960114
1716979903270025000,9.44302490234375,0.48302745819091797,-0.15897299349308014,-0.09093988686800003
1716979903279738000,9.452738037109375,0.3742966651916504,-0.1113269105553627,-0.07505785673856735
1716979903289451500,9.462451416015625,0.2618243992328644,-0.07101099193096161,-0.0946049690246582
1716979903299164700,9.47216455078125,0.16408884525299072,-0.039857782423496246,-0.14408360421657562
1716979903308878000,9.481878173828125,0.09200886636972427,-0.013591351918876171,-0.20333577692508698
1716979903318591500,9.491591552734375,0.049860406666994095,0.010842538438737392,-0.24976016581058502
1716979903328305000,9.501304931640625,0.02970244735479355,0.029778804630041122,-0.2680855989456177
1716979903338018000,9.51101806640625,0.02053973823785782,0.03405473381280899,-0.24426254630088806
1716979903347731500,9.5207314453125,0.01626380905508995,0.01695101149380207,-0.18073442578315735
1716979903357444600,9.530444580078125,0.016874656081199646,-0.010537114925682545,-0.08544225990772247
1716979903367158000,9.540157958984375,0.02176143415272236,-0.04413371533155441,0.036727190017700195
1716979903376871400,9.549871337890625,0.021150587126612663,-0.09361234307289124,0.168670192360878
1716979903386584600,9.55958447265625,0.02298312820494175,-0.14858859777450562,0.29328304529190063
1716979903396298000,9.569298095703125,0.03764346241950989,-0.19989976286888123,0.3867426812648773
1716979903406011400,9.579011474609375,0.0620773509144783,-0.27320143580436707,0.4301128387451172
1716979903415724500,9.588724609375,0.09384141117334366,-0.3703261613845825,0.431334525346756
1716979903425438000,9.59843798828125,0.13232478499412537,-0.47355934977531433,0.41056570410728455
1716979903435151400,9.6081513671875,0.1659213900566101,-0.5645755529403687,0.38124504685401917
1716979903444864500,9.617864501953125,0.17569494247436523,-0.6232169270515442,0.3641413152217865
1716979903454578000,9.627577880859375,0.1555369794368744,-0.6207735538482666,0.375747412443161
1716979903464291300,9.637291259765625,0.10483665764331818,-0.5499152541160583,0.4038463830947876
1716979903474004500,9.64700439453125,0.04619532451033592,-0.4246915578842163,0.4295019805431366
1716979903483718000,9.6567177734375,-0.0051158457063138485,-0.28664007782936096,0.43561044335365295
1716979903493431300,9.666431396484375,-0.05154023692011833,-0.16813570261001587,0.4117874205112457
1716979903503144400,9.67614453125,-0.09735377877950668,-0.08078455179929733,0.3598653972148895
1716979903512857900,9.68585791015625,-0.14316733181476593,-0.02214321307837963,0.2975589632987976
1716979903522571300,9.6955712890625,-0.19447849690914154,0.014507622458040714,0.23769593238830566
1716979903532284400,9.705284423828125,-0.26045000553131104,0.034665580838918686,0.1821088343858719
1716979903541997800,9.714997802734375,-0.33680590987205505,0.06887302547693253,0.13446275889873505
1716979903551711200,9.724711181640625,-0.394225537776947,0.11590826511383057,0.10514208674430847
1716979903561424400,9.73442431640625,-0.41499435901641846,0.1238492801785469,0.09720107167959213
1716979903571137800,9.7441376953125,-0.40522080659866333,0.07925742864608765,0.10819631814956665
1716979903580851200,9.753851318359375,-0.37406760454177856,0.01695101149380207,0.139960378408432
1716979903590564400,9.763564453125,-0.3337516784667969,-0.01725643500685692,0.19066070020198822
1716979903600277800,9.77327783203125,-0.3032093048095703,-0.02092151902616024,0.23952847719192505
1716979903609991200,9.7829912109375,-0.32642149925231934,-0.05329642444849014,0.23830679059028625
1716979903619704300,9.792704345703125,-0.42660045623779297,-0.13576079905033112,0.13385190069675446
1716979903629417700,9.802417724609375,-0.5799230933189392,-0.23166382312774658,-0.09216158092021942
1716979903639131100,9.812131103515625,-0.7283589839935303,-0.28602921962738037,-0.39827242493629456
1716979903648844300,9.82184423828125,-0.81509929895401,-0.27808821201324463,-0.6945333480834961
1716979903658557700,9.8315576171875,-0.8279271125793457,-0.17913095653057098,-0.8979454636573792
1716979903668271000,9.84127099609375,-0.7509603500366211,0.01817270554602146,-0.9608627557754517
1716979903677984300,9.850984375,-0.5768688917160034,0.266176700592041,-0.8875610828399658
1716979903687697700,9.86069775390625,-0.33497336506843567,0.525175929069519,-0.7140804529190063
1716979903697411000,9.8704111328125,-0.08513683825731277,0.7579087615013123,-0.4953971207141876
1716979903707124200,9.880124267578125,0.10911259055137634,0.9210049510002136,-0.3010713458061218
1716979903716837600,9.889837646484375,0.24227729439735413,0.9736141562461853,-0.17645850777626038
1716979903726551000,9.899551025390625,0.31741151213645935,0.8984035849571228,-0.1349208950996399
1716979903736264200,9.90926416015625,0.33023929595947266,0.7395833134651184,-0.16546325385570526
1716979903745977600,9.9189775390625,0.28137150406837463,0.5483881235122681,-0.253425270318985
1716979903755690800,9.928690673828125,0.1921878159046173,0.35291701555252075,-0.37383851408958435
1716979903765404200,9.938404052734375,0.11033428460359573,0.18310146033763885,-0.49234288930892944
1716979903775117600,9.94811767578125,0.0626882016658783,0.04321744292974472,-0.577861487865448
1716979903784831000,9.9578310546875,0.033978380262851715,-0.0716218426823616,-0.605960488319397
1716979903794544000,9.967544189453125,0.01748550310730934,-0.17302247881889343,-0.5680879354476929
1716979903804257500,9.977257568359375,0.021150587126612663,-0.2432699203491211,-0.4868452548980713
1716979903813971000,9.986970947265625,0.039476003497838974,-0.2670929729938507,-0.3830012381076813
1716979903823684000,9.99668408203125,0.06146650388836861,-0.24754585325717926,-0.27297237515449524
1716979903833397500,10.0063974609375,0.07918107509613037,-0.2011214643716812,-0.1752368062734604
1716979903843110700,10.016110595703125,0.09017632901668549,-0.16691401600837708,-0.09399411827325821
1716979903852824000,10.025823974609375,0.0883437842130661,-0.15591876208782196,-0.035352785140275955
1716979903862537500,10.035537353515625,0.0755159929394722,-0.14736689627170563,0.0067956759594380856
1716979903872251000,10.0452509765625,0.04741701856255531,-0.11804623156785965,0.03978142887353897
1716979903881964000,10.054964111328125,0.005268557462841272,-0.06001574173569679,0.05016583204269409
1716979903891677400,10.064677490234375,-0.04359922185540199,0.0022906772792339325,0.0361163429915905
1716979903901390800,10.074390869140625,-0.08391514420509338,0.027946261689066887,0.005573981441557407
1716979903911104000,10.08410400390625,-0.10407309979200363,0.0010689827613532543,-0.02680092304944992
1716979903920817400,10.0938173828125,-0.09674293547868729,-0.05757235363125801,-0.04390464723110199
1716979903930530800,10.10353076171875,-0.07230904698371887,-0.11560284346342087,-0.04023956134915352
1716979903940244000,10.113243896484375,-0.040544986724853516,-0.15958385169506073,-0.012751436792314053
1716979903949957400,10.122957275390625,-0.01122431829571724,-0.18768282234668732,0.035505495965480804
1716979903959670800,10.1326708984375,0.018707197159528732,-0.17913095653057098,0.09292513877153397
1716979903969384000,10.142384033203125,0.04130854457616806,-0.12048961967229843,0.14606885612010956
1716979903979097300,10.152097412109375,0.048638712614774704,-0.038636088371276855,0.1949366331100464
1716979903988810800,10.161810791015625,0.03214583545923233,0.05787777900695801,0.23464170098304749
1716979903998524000,10.17152392578125,-0.002061609411612153,0.1757712960243225,0.26212984323501587
1716979904008237300,10.1812373046875,-0.03749075159430504,0.28938889503479004,0.26579490303993225
1716979904017950700,10.19095068359375,-0.06436803191900253,0.3742966651916504,0.23647424578666687
1716979904027664000,10.200663818359375,-0.06986565887928009,0.41766682267189026,0.19066070020198822
1716979904037377300,10.210377197265625,-0.053983625024557114,0.42927291989326477,0.15095563232898712
1716979904047090700,10.220090576171875,-0.02283041551709175,0.429883748292923,0.1405712217092514
1716979904056803800,10.229803955078125,0.02176143415272236,0.40422818064689636,0.17111359536647797
1716979904066517200,10.239517333984375,0.07734853774309158,0.32970482110977173,0.22547899186611176
1716979904076230700,10.249230712890625,0.14759597182273865,0.26128992438316345,0.2835094928741455
1716979904085943800,10.25894384765625,0.23739051818847656,0.25029465556144714,0.3372640311717987
1716979904095657200,10.2686572265625,0.32901760935783386,0.27350685000419617,0.37086063623428345
1716979904105370600,10.27837060546875,0.39567631483078003,0.30099499225616455,0.36780640482902527
1716979904115083800,10.288083740234375,0.4359922409057617,0.3571929335594177,0.32993388175964355
1716979904124797200,10.297797119140625,0.45859357714653015,0.448820024728775,0.2706816792488098
1716979904134510600,10.307510498046875,0.4518742561340332,0.5123481154441833,0.19004985690116882
1716979904144223700,10.3172236328125,0.40544986724853516,0.4793623983860016,0.0886492058634758
1716979904153937200,10.326937255859375,0.32901760935783386,0.35597124695777893,-0.02008160389959812
1716979904163650600,10.336650634765626,0.25449424982070923,0.17882554233074188,-0.0958266630768776
1716979904173363700,10.34636376953125,0.19768545031547546,-0.012980503961443901,-0.10621106624603271
1716979904183077000,10.3560771484375,0.1543152928352356,-0.18646112084388733,-0.05184566229581833
1716979904192790500,10.36579052734375,0.12560546398162842,-0.3214583694934845,0.05932854115962982
1716979904202503700,10.375503662109375,0.12560546398162842,-0.38009971380233765,0.193104088306427
1716979904212217000,10.385217041015625,0.1524827480316162,-0.36605021357536316,0.3012240529060364
1716979904221930500,10.394930419921875,0.17752748727798462,-0.3202366828918457,0.35925453901290894
1716979904231643600,10.4046435546875,0.1799708753824234,-0.279920756816864,0.3623087704181671
1716979904241357000,10.414357177734376,0.16408884525299072,-0.28786176443099976,0.30733251571655273
1716979904251070500,10.424070556640626,0.15920206904411316,-0.36482852697372437,0.20287764072418213
1716979904260783600,10.43378369140625,0.1811925619840622,-0.47233763337135315,0.06849125027656555
1716979904270497000,10.4434970703125,0.21784339845180511,-0.5474718809127808,-0.07261446863412857
1716979904280210400,10.45321044921875,0.23677967488765717,-0.5602996349334717,-0.2002815455198288
1716979904289923600,10.462923583984375,0.22395187616348267,-0.4943281412124634,-0.29862794280052185
1716979904299637000,10.472636962890626,0.19707459211349487,-0.358720064163208,-0.359712690114975
1716979904309350400,10.482350341796876,0.15736952424049377,-0.19195875525474548,-0.3799470067024231
1716979904319063800,10.492063720703126,0.11644276231527328,-0.01969982497394085,-0.357269287109375
1716979904328777000,10.50177685546875,0.08162446320056915,0.12751436233520508,-0.29557371139526367
1716979904338490400,10.511490478515626,0.059023115783929825,0.22036315500736237,-0.2002815455198288
1716979904348203500,10.52120361328125,0.04802786558866501,0.26067906618118286,-0.08666395395994186
1716979904357917000,10.5309169921875,0.048638712614774704,0.27595025300979614,0.027564482763409615
1716979904367630300,10.54063037109375,0.05474718660116196,0.2686200737953186,0.12102411687374115
1716979904377343700,10.55034375,0.0620773509144783,0.23319093883037567,0.1814979910850525
1716979904387057000,10.560056884765626,0.05657972767949104,0.16721943020820618,0.20348849892616272
1716979904396770300,10.569770263671876,0.03458922728896141,0.09147437661886215,0.18760646879673004
1716979904406483700,10.579483642578126,0.004657710436731577,0.029778804630041122,0.1533990204334259
1716979904416196900,10.58919677734375,-0.03199312463402748,0.0022906772792339325,0.12530004978179932
1716979904425910300,10.59891015625,-0.0814717561006546,0.0029015245381742716,0.12285665422677994
1716979904435623700,10.608623779296876,-0.14316733181476593,0.004123218823224306,0.14729054272174835
1716979904445336800,10.6183369140625,-0.20303036272525787,-0.0038177953101694584,0.17477867007255554
1716979904455050200,10.62805029296875,-0.24395711719989777,-0.008704573847353458,0.17722205817699432
1716979904464763600,10.637763671875,-0.2677801549434662,0.0004581354442052543,0.13385190069675446
1716979904474476800,10.647476806640626,-0.2775537371635437,-0.0856713280081749,0.019623467698693275
1716979904484190200,10.657190185546876,-0.28549474477767944,-0.13942588865756989,-0.12026055157184601
1716979904493903600,10.666903564453126,-0.3032093048095703,-0.08750387281179428,-0.24731677770614624
1716979904503616800,10.67661669921875,-0.3404709994792938,0.021226942539215088,-0.36582115292549133
1716979904513330200,10.686330078125,-0.3801760673522949,0.13423368334770203,-0.4819584786891937
1716979904523043600,10.696043701171876,-0.38994961977005005,0.12995775043964386,-0.5955760478973389
1716979904532757000,10.705757080078126,-0.3832302987575531,-0.019088976085186005,-0.6810947060585022
1716979904542470100,10.71547021484375,-0.3997231721878052,-0.23227466642856598,-0.6975875496864319
1716979904552183600,10.72518359375,-0.45775365829467773,-0.4362976551055908,-0.6365028619766235
1716979904561896700,10.734896728515626,-0.5487698912620544,-0.5871769189834595,-0.5155550837516785
1716979904571610000,10.744610107421876,-0.6361210346221924,-0.6067240238189697,-0.35360419750213623
1716979904581323500,10.754323486328126,-0.6794912219047546,-0.48455458879470825,-0.1856212168931961
1716979904591037000,10.764036865234376,-0.6739935874938965,-0.2805316150188446,-0.05795413255691528
1716979904600750000,10.77375,-0.6281800270080566,-0.02092151902616024,0.007406522985547781
1716979904610463500,10.78346337890625,-0.5463265180587769,0.24846212565898895,0.025121092796325684
1716979904620176600,10.7931767578125,-0.4479801058769226,0.4414898455142975,0.00129805039614439
1716979904629890000,10.80289013671875,-0.3716242015361786,0.5160132050514221,-0.05062396824359894
1716979904639603500,10.812603515625,-0.343525230884552,0.478751540184021,-0.12392564117908478
1716979904649316900,10.82231689453125,-0.3728458881378174,0.3730749487876892,-0.2137201875448227
1716979904659030000,10.832030029296876,-0.4259895980358124,0.2582356929779053,-0.2925194799900055
1716979904668743400,10.841743408203126,-0.45897534489631653,0.16966283321380615,-0.32306185364723206
1716979904678456800,10.851456787109376,-0.4467584192752838,0.13179029524326324,-0.28335678577423096
1716979904688170000,10.861169921875,-0.39117130637168884,0.11835165321826935,-0.17951273918151855
1716979904697883400,10.87088330078125,-0.2916032075881958,0.10857810080051422,-0.026190076023340225
1716979904707596800,10.8805966796875,-0.1492757946252823,0.10185877978801727,0.1527881771326065
1716979904717310000,10.89031005859375,0.007711946498602629,0.10063708573579788,0.322603702545166
1716979904727023400,10.9000234375,0.1402658075094223,0.0853659063577652,0.4411080777645111
1716979904736736800,10.90973681640625,0.23616881668567657,0.03955236077308655,0.4930301010608673
1716979904746450000,10.919449951171876,0.2966426908969879,-0.012980503961443901,0.4814240038394928
1716979904756163300,10.929163330078126,0.31557896733283997,-0.05757235363125801,0.4136199355125427
1716979904765876700,10.938876708984376,0.2966426908969879,-0.09666658192873001,0.30183491110801697
1716979904775590000,10.94858984375,0.2593810260295868,-0.12965233623981476,0.15828579664230347
1716979904785303300,10.95830322265625,0.2184542566537857,-0.14186927676200867,-0.0011453386396169662
1716979904795016700,10.9680166015625,0.18730103969573975,-0.11926792562007904,-0.15202461183071136
1716979904804730000,10.977730224609376,0.1659213900566101,-0.06856760382652283,-0.2662530541419983
1716979904814443300,10.987443359375,0.15736952424049377,-0.009315420873463154,-0.32367268204689026
1716979904824156700,10.99715673828125,0.1677539348602295,0.033443886786699295,-0.31389912962913513
1716979904833870000,11.0068701171875,0.19096612930297852,0.043828289955854416,-0.24120831489562988
1716979904843583200,11.016583251953126,0.21356746554374695,0.01817270554602146,-0.12514732778072357
1716979904853296600,11.026296630859376,0.22700610756874084,-0.04352286830544472,0.007406522985547781
1716979904863010000,11.036010009765626,0.22273017466068268,-0.12720894813537598,0.1424037665128708
1716979904872723200,11.04572314453125,0.1915769726037979,-0.20600824058055878,0.26335152983665466
1716979904882436600,11.0554365234375,0.13476817309856415,-0.256708562374115,0.3378748893737793
1716979904892150000,11.06514990234375,0.07124006003141403,-0.28786176443099976,0.35620030760765076
1716979904901863200,11.07486328125,0.010766183026134968,-0.2951919436454773,0.31771692633628845
1716979904911576600,11.08457666015625,-0.040544986724853516,-0.27686652541160583,0.2309766262769699
1716979904921290000,11.0942900390625,-0.07475243508815765,-0.2408265322446823,0.11186140775680542
1716979904931003100,11.104003173828126,-0.08880192041397095,-0.2041756957769394,-0.018249060958623886
1716979904940716500,11.113716552734376,-0.08574768155813217,-0.18401773273944855,-0.13858596980571747
1716979904950430000,11.123429931640626,-0.06620056927204132,-0.18218518793582916,-0.2259371280670166
1716979904960143000,11.13314306640625,-0.041766680777072906,-0.20234315097332,-0.27419406175613403
1716979904969856500,11.1428564453125,-0.02038702741265297,-0.24754585325717926,-0.2760266065597534
1716979904979570000,11.15256982421875,-0.007559234742075205,-0.28725093603134155,-0.23204560577869415
1716979904989283300,11.162283447265626,-0.01122431829571724,-0.29091599583625793,-0.14897038042545319
1716979904998996500,11.17199658203125,-0.023441264405846596,-0.2426590770483017,-0.03596363216638565
1716979905008710000,11.1817099609375,-0.040544986724853516,-0.14431266486644745,0.08376242965459824
1716979905018423300,11.19142333984375,-0.06192464008927345,-0.0068720318377017975,0.1808871477842331
1716979905028136400,11.201136474609376,-0.06558972597122192,0.14645062386989594,0.24075017869472504
1716979905037849900,11.210849853515626,-0.03077143058180809,0.2924431264400482,0.26640576124191284
1716979905047563300,11.220563232421876,0.03764346241950989,0.39506545662879944,0.26518407464027405
1716979905057276400,11.2302763671875,0.1286597102880478,0.4421007037162781,0.25479966402053833
1716979905066989800,11.23998974609375,0.21723255515098572,0.44393324851989746,0.2456369549036026
1716979905076703200,11.249703125,0.28931254148483276,0.3975088596343994,0.22914408147335052
1716979905086416400,11.25941650390625,0.33886751532554626,0.3187095522880554,0.1949366331100464
1716979905096129800,11.2691298828125,0.3620797097682953,0.23502348363399506,0.14301460981369019
1716979905105843200,11.27884326171875,0.35169529914855957,0.16721943020820618,0.0752105712890625
1716979905115556400,11.288556396484376,0.2984752357006073,0.111021488904953,-0.008475505746901035
1716979905125269800,11.298269775390626,0.21234577894210815,0.060932014137506485,-0.11231953650712967
1716979905134983200,11.307983154296876,0.12316207587718964,0.009009997360408306,-0.23693238198757172
1716979905144696600,11.317696533203126,0.05169294774532318,-0.06306997686624527,-0.37322768568992615
1716979905154409700,11.32740966796875,0.004657710436731577,-0.1632489264011383,-0.5002838969230652
1716979905164123100,11.337123046875,-0.014278554357588291,-0.23471805453300476,-0.582748293876648
1716979905173836500,11.34683642578125,0.005879404954612255,-0.24571330845355988,-0.5845808386802673
1716979905183549700,11.3565498046875,0.05596888065338135,-0.2145601063966751,-0.4868452548980713
1716979905193263000,11.36626318359375,0.11766445636749268,-0.13087402284145355,-0.29984965920448303
1716979905202976500,11.3759765625,0.18546849489212036,0.012675080448389053,-0.06650599837303162
1716979905212689700,11.385689697265626,0.24899661540985107,0.1507265567779541,0.14545799791812897
1716979905222403000,11.395403076171876,0.2868691384792328,0.22158484160900116,0.2835094928741455
1716979905232116500,11.405116455078126,0.29481014609336853,0.21364383399486542,0.3384857475757599
1716979905241829600,11.41482958984375,0.2740413546562195,0.14828316867351532,0.3244362473487854
1716979905251543000,11.42454296875,0.23616881668567657,0.03771981969475746,0.24869118630886078
1716979905261256400,11.43425634765625,0.19707459211349487,-0.10033166408538818,0.12530004978179932
1716979905270969900,11.443969970703124,0.16408884525299072,-0.22677704691886902,-0.022524992004036903
1716979905280683000,11.45368310546875,0.13660071790218353,-0.28786176443099976,-0.16729579865932465
1716979905290396400,11.463396484375,0.1139993667602539,-0.26281702518463135,-0.2906869351863861
1716979905300109600,11.473109619140626,0.09811734408140182,-0.17057909071445465,-0.38788801431655884
1716979905309823000,11.482822998046874,0.0889546349644661,-0.0331384651362896,-0.45508119463920593
1716979905319536400,11.492536376953124,0.09384141117334366,0.12018419802188873,-0.4856235682964325
1716979905329249800,11.502249755859374,0.11216682940721512,0.23441264033317566,-0.4819584786891937
1716979905338963000,11.511962890625,0.13904410600662231,0.2814478874206543,-0.4477510452270508
1716979905348676400,11.52167626953125,0.17019732296466827,0.2539597451686859,-0.38544461131095886
1716979905358389800,11.5313896484375,0.20012883841991425,0.17393875122070312,-0.3010713458061218
1716979905368103000,11.54110302734375,0.2202867865562439,0.06520794332027435,-0.20516832172870636
1716979905377816300,11.55081640625,0.22639526426792145,-0.06184828653931618,-0.1074327602982521
1716979905387529700,11.56052978515625,0.21723255515098572,-0.18340688943862915,-0.02802261710166931
1716979905397243100,11.5702431640625,0.1934095174074173,-0.2835858464241028,0.01779092662036419
1716979905406956300,11.579956298828124,0.17752748727798462,-0.34222719073295593,0.04161396995186806
1716979905416669700,11.589669677734374,0.18913358449935913,-0.3495573401451111,0.06543701142072678
1716979905426382800,11.5993828125,0.23433628678321838,-0.3196258246898651,0.10819631814956665
1716979905436096300,11.60909619140625,0.3009186387062073,-0.2805316150188446,0.16928105056285858
1716979905445809700,11.6188095703125,0.3718532621860504,-0.26342788338661194,0.23769593238830566
1716979905455523000,11.628523193359374,0.4359922409057617,-0.2793098986148834,0.30672168731689453
1716979905465236200,11.638236328125,0.48424917459487915,-0.3214583694934845,0.3733040392398834
1716979905474949600,11.64794970703125,0.5050179958343506,-0.3855973184108734,0.42339351773262024
1716979905484663000,11.6576630859375,0.49524441361427307,-0.462564080953598,0.4398863911628723
1716979905494376200,11.667376220703124,0.45615020394325256,-0.5291464328765869,0.4295019805431366
1716979905504089600,11.677089599609374,0.399952232837677,-0.5602996349334717,0.4062897861003876
1716979905513803000,11.686802978515624,0.34314343333244324,-0.5462501645088196,0.38307759165763855
1716979905523516200,11.69651611328125,0.3009186387062073,-0.4760027229785919,0.36902809143066406
1716979905533229600,11.7062294921875,0.28137150406837463,-0.34100547432899475,0.36963894963264465
1716979905542943000,11.71594287109375,0.2697654068470001,-0.15591876208782196,0.37269318103790283
1716979905552656100,11.72565625,0.22211933135986328,0.04749337583780289,0.3531460762023926
1716979905562369500,11.73536962890625,0.1005607321858406,0.21975229680538177,0.29145050048828125
1716979905572083000,11.7450830078125,-0.09307785332202911,0.34008920192718506,0.18882815539836884
1716979905581796400,11.75479638671875,-0.3319191336631775,0.423164427280426,0.07765395939350128
1716979905591509500,11.764509521484374,-0.5701495409011841,0.49524441361427307,-0.010308047756552696
1716979905601223000,11.774222900390624,-0.7552362680435181,0.5459447503089905,-0.0683385357260704
1716979905610936300,11.783936279296874,-0.8578585982322693,0.5471664071083069,-0.09949174523353577
1716979905620649500,11.7936494140625,-0.8804599642753601,0.5141806602478027,-0.10010259598493576
1716979905630363000,11.80336279296875,-0.838311493396759,0.4756973087787628,-0.07139277458190918
1716979905640076300,11.813076171875,-0.7766159176826477,0.3828485310077667,-0.026190076023340225
1716979905649789400,11.82278955078125,-0.7729508280754089,0.1776038408279419,-0.02924431301653385
1716979905659502800,11.8325029296875,-0.8822925090789795,-0.10033166408538818,-0.16301986575126648
1716979905669216300,11.84221630859375,-1.0618816614151,-0.3599417507648468,-0.4459185004234314
1716979905678929400,11.851929443359374,-1.2127609252929688,-0.5291464328765869,-0.8112051486968994
1716979905688642800,11.861642822265624,-1.27445650100708,-0.6024481058120728,-1.1551121473312378
1716979905698356200,11.871356201171874,-1.2390272617340088,-0.5364766120910645,-1.3841798305511475
1716979905708069600,11.881069580078124,-1.1009758710861206,-0.28847262263298035,-1.430604338645935
1716979905717782800,11.89078271484375,-0.8737406730651855,0.10308047384023666,-1.2797249555587769
1716979905727496200,11.90049609375,-0.5927509069442749,0.5172349214553833,-0.9663603901863098
1716979905737209600,11.910209716796874,-0.3032093048095703,0.8134958148002625,-0.5577035546302795
1716979905746922800,11.9199228515625,-0.048486001789569855,0.9142856597900391,-0.14469444751739502
1716979905756636200,11.92963623046875,0.14881765842437744,0.8415948152542114,0.18394137918949127
