time,seconds_elapsed,z,y,x
1716979893874983200,0.047983154296875,9.851848602294922,1.407876968383789,-0.008374879136681557
1716979893899217200,0.072217041015625,9.859027862548828,1.3549357652664185,-0.040677983313798904
1716979893908930600,0.0819306640625,9.880562782287598,1.3357932567596436,-0.031106693670153618
1716979893918643700,0.091643798828125,9.90688419342041,1.319043517112732,-0.019142581149935722
1716979893928356900,0.10135693359375,9.952347755432129,1.3022937774658203,0
1716979893938070300,0.1110703125,9.993025779724121,1.292722463607788,0.0023928226437419653
1716979893947783400,0.120783447265625,10.000204086303711,1.292722463607788,-0.009571290574967861
1716979893957496600,0.13049658203125,9.969097137451172,1.3046865463256836,-0.014356935396790504
1716979893967210000,0.1402099609375,9.904491424560547,1.3286148309707642,-0.014356935396790504
1716979893976923100,0.149923095703125,9.810872077941895,1.3597214221954346,-0.009571290574967861
1716979893986636300,0.15963623046875,9.700801849365234,1.3860424757003784,0.004785645287483931
1716979893996349700,0.169349609375,9.59073257446289,1.434198021888733,0.035892341285943985
1716979894006062800,0.179062744140625,9.509376525878906,1.5131611824035645,0.07896314561367035
1716979894015776000,0.18877587890625,9.454340934753418,1.6256239414215088,0.13160525262355804
1716979894025489200,0.1984892578125,9.423234939575195,1.7548363208770752,0.20099709928035736
1716979894035202600,0.20820263671875,9.404091835021973,1.8888343572616577,0.28504499793052673
1716979894044915700,0.217915771484375,9.39452075958252,2.0207388401031494,0.3807578980922699
1716979894054628900,0.22762890625,9.389735221862793,2.1308085918426514,0.49322056770324707
1716979894064342300,0.23734228515625,9.38734245300293,2.1786649227142334,0.5434698462486267
1716979894074055400,0.247055419921875,9.411270141601562,2.1786649227142334,0.5434698462486267
1716979894083768600,0.2567685546875,9.47348403930664,2.1571295261383057,0.521934449672699
1716979894093482000,0.26648193359375,9.569196701049805,2.1308085918426514,0.5123631358146667
1716979894103195100,0.276195068359375,9.674481391906738,2.1092731952667236,0.521934449672699
1716979894112908300,0.285908203125,9.767801284790039,2.094916343688965,0.5482555031776428
1716979894122621700,0.29562158203125,9.851848602294922,2.0757737159729004,0.5913262963294983
1716979894132334800,0.3053349609375,9.933204650878906,2.063809633255005,0.6152545213699341
1716979894142048000,0.315048095703125,10.012167930603027,2.0757737159729004,0.6008976101875305
1716979894151761400,0.324761474609375,10.083952903747559,2.0925233364105225,0.5578267574310303
1716979894161474600,0.334474609375,10.12463092803955,2.11405873298645,0.5075774788856506
1716979894171187700,0.344187744140625,10.107880592346191,2.142772674560547,0.44775694608688354
1716979894180900900,0.35390087890625,10.033703804016113,2.1714866161346436,0.385543555021286
1716979894190614300,0.3636142578125,9.916455268859863,2.197807550430298,0.3233301639556885
1716979894200327400,0.373327392578125,9.770194053649902,2.2265214920043945,0.27038896083831787
1716979894210040800,0.383040771484375,9.624231338500977,2.2600209712982178,0.2273181527853012
1716979894219754000,0.39275390625,9.50459098815918,2.307877540588379,0.19381862878799438
1716979894229467100,0.402467041015625,9.423234939575195,2.3605196475982666,0.16749759018421173
1716979894239180300,0.41218017578125,9.365806579589844,2.4131617546081543,0.16510476171970367
1716979894248893700,0.421893798828125,9.327521324157715,2.458625316619873,0.18424734473228455
1716979894258606800,0.43160693359375,9.308379173278809,2.489732027053833,0.21774685382843018
1716979894268320000,0.441320068359375,9.325128555297852,2.506481647491455,0.24406790733337402
1716979894278033400,0.451033447265625,9.36341381072998,2.5088746547698975,0.2632105052471161
1716979894287746600,0.46074658203125,9.416056632995605,2.504088878631592,0.275174617767334
1716979894297459700,0.470459716796875,9.46630573272705,2.496910333633423,0.2826521694660187
1716979894307173000,0.480173095703125,9.509376525878906,2.489732027053833,0.27038896083831787
1716979894316886300,0.48988623046875,9.533304214477539,2.480160713195801,0.23449662327766418
1716979894326599400,0.499599365234375,9.538089752197266,2.4681966304779053,0.1866401731967926
1716979894336312800,0.509312744140625,9.540482521057129,2.4634108543395996,0.13878370821475983
1716979894346026000,0.51902587890625,9.554840087890625,2.4681966304779053,0.11006984114646912
1716979894355739100,0.5287392578125,9.588339805603027,2.480160713195801,0.12203395366668701
1716979894365452500,0.53845263671875,9.648159980773926,2.5016961097717285,0.1459621787071228
1716979894375165700,0.548165771484375,9.717552185058594,2.5283162593841553,0.16031911969184875
1716979894384878800,0.55787890625,9.789336204528809,2.564208507537842,0.16271193325519562
1716979894394592000,0.567592041015625,9.847063064575195,2.6072793006896973,0.16749759018421173
1716979894404305400,0.577305419921875,9.878170013427734,2.659921407699585,0.16271193325519562
1716979894414018600,0.5870185546875,9.89970588684082,2.700599431991577,0.16271193325519562
1716979894423732000,0.59673193359375,9.926026344299316,2.724527597427368,0.17228323221206665
1716979894433445000,0.606445068359375,9.978668212890625,2.731706142425537,0.18424734473228455
1716979894443158300,0.616158203125,10.074381828308105,2.7269206047058105,0.20099709928035736
1716979894452871700,0.62587158203125,10.292128562927246,2.707777976989746,0.20338992774486542
1716979894462584800,0.635584716796875,10.469496726989746,2.674278497695923,0.24646073579788208
1716979894472298000,0.645298095703125,10.577173233032227,2.693420886993408,0.31375887989997864
1716979894482011100,0.65501123046875,10.68963623046875,2.698206663131714,0.39511483907699585
1716979894491724500,0.664724609375,10.816455841064453,2.6790640354156494,0.5003990530967712
1716979894501437700,0.674437744140625,10.897811889648438,2.6862425804138184,0.5961119532585144
1716979894511150800,0.68415087890625,10.943573951721191,2.7101707458496094,0.6918248534202576
1716979894520864300,0.6938642578125,10.96750259399414,2.659921407699585,0.6846463680267334
1716979894530577400,0.703577392578125,10.955538749694824,2.5953152179718018,0.7037889361381531
1716979894540290600,0.71329052734375,10.9002046585083,2.5546371936798096,0.7037889361381531
1716979894550004000,0.72300390625,10.847562789916992,2.5088746547698975,0.7085745930671692
1716979894559717000,0.732717041015625,10.787741661071777,2.4466612339019775,0.7109674215316772
1716979894569430300,0.74243017578125,10.732707023620605,2.379662036895752,0.7133602499961853
1716979894579143700,0.752143798828125,10.694421768188477,2.3054845333099365,0.6822535395622253
1716979894588856800,0.76185693359375,10.641779899597168,2.2241287231445312,0.5865406394004822
1716979894598570000,0.771570068359375,10.55085277557373,2.169093608856201,0.43100717663764954
1716979894608283400,0.781283447265625,10.412068367004395,2.128415822982788,0.2560320198535919
1716979894617996500,0.79099658203125,10.234700202941895,2.1068804264068604,0.10767702013254166
1716979894627709700,0.800709716796875,10.026525497436523,2.135594129562378,0.009571290574967861
1716979894637423000,0.810423095703125,9.835099220275879,2.197807550430298,-0.007178467698395252
1716979894647136300,0.82013623046875,9.691230773925781,2.2743778228759766,0.07417750358581543
1716979894656849400,0.829849365234375,9.607481956481934,2.3270199298858643,0.2392822653055191
1716979894666562800,0.839562744140625,9.609874725341797,2.307877540588379,0.44775694608688354
1716979894676276000,0.84927587890625,9.698409080505371,2.181057929992676,0.6343970894813538
1716979894685989000,0.858989013671875,9.866206169128418,1.9462621212005615,0.7253243923187256
1716979894695702300,0.868702392578125,10.112667083740234,1.6399807929992676,0.6774678826332092
1716979894705415700,0.878415771484375,10.424033164978027,1.3094722032546997,0.5075774788856506
1716979894715128800,0.88812890625,10.730314254760742,1.0031908750534058,0.27038896083831787
1716979894724842200,0.89784228515625,10.977073669433594,0.7372884750366211,0.04546362906694412
1716979894734555400,0.907555419921875,11.12303638458252,0.5315057039260864,-0.07178468257188797
1716979894744268500,0.9172685546875,11.190034866333008,0.43100717663764954,-0.031106693670153618
1716979894753981700,0.926981689453125,11.192427635192871,0.4286143481731415,0.02392822690308094
1716979894763695000,0.936695068359375,11.120643615722656,0.4286143481731415,0.031106693670153618
1716979894773408300,0.946408203125,10.957931518554688,0.4453641176223755,0.009571290574967861
1716979894783121400,0.956121337890625,10.701600074768066,0.4668995141983032,-0.05503492057323456
1716979894792834800,0.965834716796875,10.404890060424805,0.4860421121120453,-0.09092725813388824
1716979894802548000,0.9755478515625,10.083952903747559,0.5147559642791748,-0.12681959569454193
1716979894812261000,0.98526123046875,9.772586822509766,0.5650052428245544,-0.1746760457754135
1716979894821974500,0.994974609375,9.506983757019043,0.6152545213699341,-0.21296121180057526
1716979894831687700,1.004687744140625,9.303593635559082,0.6583253145217896,-0.21296121180057526
1716979894841400800,1.01440087890625,9.159725189208984,0.7037889361381531,-0.1866401731967926
1716979894851114200,1.0241142578125,9.06401252746582,0.7372884750366211,-0.13639089465141296
1716979894860827400,1.033827392578125,8.999405860900879,0.7612167000770569,-0.06699903309345245
1716979894870540500,1.04354052734375,8.937192916870117,0.7875377535820007,-0.007178467698395252
1716979894880254000,1.05325390625,8.858229637145996,0.8258228898048401,0.019142581149935722
1716979894889967000,1.062967041015625,8.760123252868652,0.8787640929222107,0.009571290574967861
1716979894899680300,1.07268017578125,8.67607593536377,0.9385846853256226,-0.040677983313798904
1716979894909393700,1.0823935546875,8.609076499938965,1.0007981061935425,-0.13160525262355804
1716979894919106800,1.09210693359375,8.54447078704834,1.0582258701324463,-0.26081767678260803
1716979894928820000,1.101820068359375,8.482256889343262,1.0965110063552856,-0.39511483907699585
1716979894938533400,1.111533447265625,8.436793327331543,1.1228320598602295,-0.5051847100257874
1716979894948246500,1.12124658203125,8.415258407592773,1.1395817995071411,-0.6152545213699341
1716979894957959700,1.130959716796875,8.39611530303955,1.225723385810852,-0.6248258352279663
1716979894967672800,1.1406728515625,8.369794845581055,1.3405789136886597,-0.5721837282180786
1716979894977386200,1.15038623046875,8.338687896728516,1.4413765668869019,-0.4788636267185211
1716979894987099400,1.160099365234375,8.508578300476074,1.4868401288986206,-0.4094717800617218
1716979894996812800,1.169812744140625,8.604290962219238,1.5179468393325806,-0.28983065485954285
1716979895006526000,1.17952587890625,8.549256324768066,1.6447664499282837,-0.21296121180057526
1716979895016239000,1.189239013671875,8.439186096191406,1.800299882888794,-0.15074782073497772
1716979895025952500,1.198952392578125,8.424829483032227,1.8385851383209229,-0.08614161610603333
1716979895035665700,1.208665771484375,8.530113220214844,1.8218353986740112,-0.031106693670153618
1716979895045378800,1.21837890625,8.7505521774292,1.831406593322754,0.004785645287483931
1716979895055092000,1.228092041015625,9.147761344909668,1.8529419898986816,-0.0023928226437419653
1716979895064805400,1.237805419921875,9.633803367614746,1.8625133037567139,-0.038285162299871445
1716979895074518500,1.2475185546875,10.067203521728516,1.8505492210388184,-0.06699903309345245
1716979895084232000,1.25723193359375,10.385747909545898,1.8385851383209229,-0.05742774158716202
1716979895093945000,1.266945068359375,10.584351539611816,1.7644076347351074,-0.07896314561367035
1716979895103658200,1.276658203125,10.692028999328613,1.6854444742202759,-0.07417750358581543
1716979895113371400,1.286371337890625,10.744670867919922,1.6328023672103882,-0.06939185410737991
1716979895123084800,1.296084716796875,10.778170585632324,1.6088740825653076,-0.0526420995593071
1716979895132798000,1.3057978515625,10.823634147644043,1.592124342918396,-0.019142581149935722
1716979895142511400,1.315511474609375,10.885847091674805,1.5801602602005005,0.02392822690308094
1716979895152224500,1.325224609375,10.96750259399414,1.5777673721313477,0.05742774158716202
1716979895161937700,1.334937744140625,11.075180053710938,1.6040884256362915,0.064606212079525
1716979895171650800,1.34465087890625,11.180463790893555,1.6495521068572998,0.07417750358581543
1716979895181364200,1.3543642578125,11.23789119720459,1.6806588172912598,0.13878370821475983
1716979895191077400,1.364077392578125,11.21635627746582,1.6686947345733643,0.26560330390930176
1716979895200790500,1.37379052734375,11.142178535461426,1.651944875717163,0.44297128915786743
1716979895210504000,1.38350390625,11.065608024597168,1.6351951360702515,0.6391827464103699
1716979895220217000,1.393217041015625,11.034502029418945,1.6112669706344604,0.8234301209449768
1716979895229930200,1.40293017578125,11.094322204589844,1.5514464378356934,0.9936196208000183
1716979895239643600,1.4126435546875,11.25464153289795,1.438983678817749,1.1180464029312134
1716979895249356800,1.422356689453125,11.453245162963867,1.2640085220336914,1.1611171960830688
1716979895259070000,1.432070068359375,11.64975643157959,1.0534402132034302,1.1084750890731812
1716979895268783400,1.441783447265625,11.841181755065918,0.8500502705574036,0.9912267923355103
1716979895278496500,1.45149658203125,11.987144470214844,0.6846463680267334,0.8282157182693481
1716979895288209700,1.461209716796875,12.056535720825195,0.5458626747131348,0.6511468887329102
1716979895297923000,1.470923095703125,12.003893852233887,0.4286143481731415,0.5075774788856506
1716979895307636200,1.48063623046875,11.819646835327148,0.34725838899612427,0.41186460852622986
1716979895317349400,1.490349365234375,11.527722358703613,0.32572299242019653,0.3568296730518341
1716979895327062800,1.500062744140625,11.175678253173828,0.35922250151634216,0.35443684458732605
1716979895336776000,1.50977587890625,10.804491996765137,0.41904306411743164,0.4286143481731415
1716979895346489000,1.519489013671875,10.445568084716797,0.5003990530967712,0.5434698462486267
1716979895356202500,1.529202392578125,10.117452621459961,0.5961119532585144,0.6655037999153137
1716979895365915600,1.53891552734375,9.810872077941895,0.701396107673645,0.7731808423995972
1716979895375628800,1.54862890625,9.542876243591309,0.8114659786224365,0.8524430394172668
1716979895385342200,1.55834228515625,9.313164710998535,0.924227774143219,0.9026923179626465
1716979895395055400,1.568055419921875,9.128618240356445,1.0247262716293335,0.9314061999320984
1716979895404768500,1.5777685546875,9.006584167480469,1.1324033737182617,0.9457631707191467
1716979895414482000,1.58748193359375,8.913264274597168,1.2352946996688843,0.9457631707191467
1716979895424195000,1.597195068359375,8.86062240600586,1.3214362859725952,0.9577272534370422
1716979895433908200,1.606908203125,8.831908226013184,1.410269856452942,0.9912267923355103
1716979895443621600,1.61662158203125,8.796015739440918,1.5083755254745483,1.0199406147003174
1716979895453334800,1.626334716796875,8.719446182250977,1.599302887916565,1.0295119285583496
1716979895463048000,1.6360478515625,8.580363273620605,1.6663018465042114,1.012762188911438
1716979895472761300,1.64576123046875,8.39611530303955,1.721336841583252,0.9337990283966064
1716979895482474500,1.655474609375,8.20229721069336,1.7524434328079224,0.8234301209449768
1716979895492187600,1.665187744140625,8.01057243347168,1.7644076347351074,0.6870391964912415
1716979895501901000,1.674901123046875,7.843074321746826,1.7691932916641235,0.5482555031776428
1716979895511614200,1.6846142578125,7.718647480010986,1.7835501432418823,0.43100717663764954
1716979895521327400,1.694327392578125,7.63729190826416,1.807478427886963,0.3281157910823822
1716979895531040800,1.704040771484375,7.596613883972168,1.8481563329696655,0.25363919138908386
1716979895540754000,1.71375390625,7.587042331695557,1.8936200141906738,0.2225325107574463
1716979895550467000,1.723467041015625,7.610970497131348,1.9486548900604248,0.22013968229293823
1716979895560180500,1.733180419921875,7.677969455718994,2.0231316089630127,0.24167509377002716
1716979895569893600,1.7428935546875,7.785646915435791,2.097309112548828,0.2679961323738098
1716979895579606800,1.752606689453125,7.941180229187012,2.166700839996338,0.3089732229709625
1716979895589320200,1.7623203125,8.123034477233887,2.2408783435821533,0.3735794425010681
1716979895599033300,1.772033447265625,8.333902359008789,2.307877540588379,0.4740779995918274
1716979895608746500,1.78174658203125,8.587541580200195,2.3820550441741943,0.6008976101875305
1716979895618460000,1.7914599609375,8.872586250305176,2.441875457763672,0.7157530784606934
1716979895628173000,1.801173095703125,9.150154113769531,2.480160713195801,0.7564310431480408
1716979895637886200,1.81088623046875,9.40169906616211,2.4945175647735596,0.7037889361381531
1716979895647599600,1.820599609375,9.672088623046875,2.465803623199463,0.5721837282180786
1716979895657312800,1.830312744140625,9.918848037719727,2.3844478130340576,0.4142574071884155
1716979895667026000,1.84002587890625,10.117452621459961,2.2959132194519043,0.2727817893028259
1716979895676739300,1.8497392578125,10.428818702697754,2.197807550430298,0.16749759018421173
1716979895686452500,1.859452392578125,10.708778381347656,2.135594129562378,0.08614161610603333
1716979895696165600,1.86916552734375,11.00578784942627,2.073380708694458,0.06699903309345245
1716979895705879000,1.878879150390625,11.316854476928711,1.9896320104599,0.11006984114646912
1716979895715592200,1.88859228515625,11.647363662719727,1.8888343572616577,0.21296121180057526
1716979895725305300,1.898305419921875,11.956037521362305,1.8194425106048584,0.3520440459251404
1716979895735018800,1.908018798828125,12.224332809448242,1.8194425106048584,0.48364928364753723
1716979895744732000,1.91773193359375,12.420543670654297,1.8577276468276978,0.5985047817230225
1716979895754445000,1.927445068359375,12.485150337219238,1.89840567111969,0.675075113773346
1716979895764158500,1.937158447265625,12.382259368896484,1.92951238155365,0.6894320249557495
1716979895773871600,1.94687158203125,12.133405685424805,1.953440546989441,0.6296114325523376
1716979895783584800,1.956584716796875,11.817254066467285,1.9558334350585938,0.524327278137207
1716979895793298200,1.966298095703125,11.510972023010254,1.9103697538375854,0.4094717800617218
1716979895803011300,1.97601123046875,11.292926788330078,1.7931214570999146,0.3089732229709625
1716979895812724500,1.985724365234375,11.20917797088623,1.628016710281372,0.22492532432079315
1716979895822438000,1.99543798828125,11.257034301757812,1.4365909099578857,0.1579262912273407
1716979895832151000,2.005151123046875,11.386246681213379,1.225723385810852,0.09092725813388824
1716979895841864200,2.0148642578125,11.537293434143066,1.0031908750534058,0
1716979895851577600,2.02457763671875,11.64018440246582,0.8018946647644043,-0.12442677468061447
1716979895861290800,2.034290771484375,11.63300609588623,0.643968403339386,-0.2632105052471161
1716979895871004000,2.04400390625,11.503495216369629,0.5147559642791748,-0.38315072655677795
1716979895880717300,2.05371728515625,11.264212608337402,0.41186460852622986,-0.4788636267185211
1716979895890430500,2.063430419921875,10.96032428741455,0.33529427647590637,-0.5626124143600464
1716979895900143600,2.0731435546875,10.629815101623535,0.3161516785621643,-0.643968403339386
1716979895909857000,2.08285693359375,10.311270713806152,0.34247273206710815,-0.7037889361381531
1716979895919570200,2.092570068359375,10.03131103515625,0.4046861231327057,-0.7037889361381531
1716979895929283300,2.102283447265625,9.784550666809082,0.48364928364753723,-0.6248258352279663
1716979895938996700,2.111996826171875,9.547661781311035,0.579362154006958,-0.4980062246322632
1716979895948710000,2.1217099609375,9.329915046691895,0.6846463680267334,-0.32572299242019653
1716979895958423300,2.13142333984375,9.145368576049805,0.7923234105110168,-0.12921242415905
1716979895968136400,2.141136474609375,8.997013092041016,0.9002995491027832,0.05024927482008934
1716979895977849600,2.150849609375,8.884550094604492,0.9960124492645264,0.20817556977272034
1716979895987562800,2.160562744140625,8.788837432861328,1.0941181182861328,0.3233301639556885
1716979895997276200,2.170276123046875,8.695218086242676,1.1874382495880127,0.38793638348579407
1716979896006989300,2.1799892578125,8.606683731079102,1.2783654928207397,0.43579283356666565
1716979896016702700,2.18970263671875,8.52054214477539,1.3716856241226196,0.4860421121120453
1716979896026415900,2.199415771484375,8.43440055847168,1.4724832773208618,0.5362913608551025
1716979896036129000,2.20912890625,8.341080665588379,1.596909999847412,0.5937191247940063
1716979896045842400,2.218842529296875,8.245368003845215,1.714158296585083,0.6678966283798218
1716979896055555600,2.2285556640625,8.140083312988281,1.8146568536758423,0.7277171611785889
1716979896065268700,2.238268798828125,8.039285659790039,1.9079769849777222,0.7540382146835327
1716979896074982100,2.247982177734375,7.950751304626465,1.9824535846710205,0.734895646572113
1716979896084695300,2.2576953125,7.907680511474609,2.0303099155426025,0.643968403339386
1716979896094408400,2.267408447265625,7.929215908050537,2.0614166259765625,0.4980062246322632
1716979896104121900,2.277121826171875,7.991429328918457,2.059023857116699,0.31854450702667236
1716979896113835000,2.2868349609375,8.065607070922852,2.0159530639648438,0.13878370821475983
1716979896123548200,2.296548095703125,8.140083312988281,1.9486548900604248,-0.016749758273363113
1716979896133261600,2.306261474609375,8.216653823852539,1.8912272453308105,-0.12921242415905
1716979896142974700,2.315974609375,8.290831565856934,1.8625133037567139,-0.1986042857170105
1716979896152687900,2.32568798828125,8.386544227600098,1.8601205348968506,-0.20578274130821228
1716979896162401300,2.3354013671875,8.530113220214844,1.8649061918258667,-0.15074782073497772
1716979896172114400,2.345114501953125,8.72901725769043,1.872084617614746,-0.040677983313798904
1716979896181827600,2.35482763671875,8.965906143188477,1.8792630434036255,0.08374879509210587
1716979896191541000,2.364541015625,9.238688468933105,1.896012783050537,0.20338992774486542
1716979896201254100,2.374254150390625,9.514162063598633,1.9055840969085693,0.2874378263950348
1716979896210967600,2.383967529296875,9.774979591369629,1.9079769849777222,0.31375887989997864
1716979896220680700,2.3936806640625,10.012167930603027,1.9007984399795532,0.3041875660419464
1716979896230393900,2.403393798828125,10.191629409790039,1.872084617614746,0.2799602448940277
1716979896240107300,2.413107177734375,10.318449020385742,1.831406593322754,0.2512463629245758
1716979896249820400,2.4228203125,10.419246673583984,1.7979071140289307,0.22492532432079315
1716979896259533600,2.432533447265625,10.512567520141602,1.7524434328079224,0.22492532432079315
1716979896269247000,2.4422470703125,10.629815101623535,1.6878372430801392,0.2584248483181
1716979896278960000,2.451960205078125,10.792527198791504,1.6208382844924927,0.2994019389152527
1716979896288673300,2.46167333984375,10.993824005126953,1.596909999847412,0.3089732229709625
1716979896298386700,2.47138671875,11.245070457458496,1.623231053352356,0.29700911045074463
1716979896308099800,2.481099853515625,11.510972023010254,1.6160526275634766,0.3448655605316162
1716979896317813000,2.49081298828125,11.711969375610352,1.5705889463424683,0.4621138870716095
1716979896327526400,2.5005263671875,11.826825141906738,1.5466607809066772,0.6200401782989502
1716979896337239600,2.510239501953125,11.886645317077637,1.599302887916565,0.7875377535820007
1716979896346953000,2.519952880859375,11.89861011505127,1.683051586151123,0.9649057388305664
1716979896356666000,2.529666015625,11.845967292785645,1.7333009243011475,1.1443674564361572
1716979896366379300,2.539379150390625,11.719147682189941,1.745265007019043,1.2951152324676514
1716979896376092700,2.5490927734375,11.53968620300293,1.7069798707962036,1.40279221534729
1716979896385805800,2.558805908203125,11.314461708068848,1.6208382844924927,1.4629119634628296
1716979896395519000,2.56851904296875,11.072786331176758,1.5035899877548218,1.474876046180725
1716979896405232400,2.578232421875,10.871490478515625,1.3692927360534668,1.4533406496047974
1716979896414945500,2.587945556640625,10.747063636779785,1.225723385810852,1.4294124841690063
1716979896424658700,2.59765869140625,10.708778381347656,1.074975609779358,1.4270195960998535
1716979896434372000,2.6073720703125,10.70399284362793,0.924227774143219,1.4437693357467651
1716979896444085200,2.617085205078125,10.706385612487793,0.7923234105110168,1.4820544719696045
1716979896453798700,2.626798583984375,10.668100357055664,0.6798607110977173,1.537089467048645
1716979896463511800,2.63651171875,10.529316902160645,0.6080760359764099,1.5801602602005005
1716979896473225000,2.646224853515625,10.316056251525879,0.5889334678649902,1.572981834411621
1716979896482938400,2.6559384765625,10.04566764831543,0.610468864440918,1.532303810119629
1716979896492651500,2.665651611328125,9.741479873657227,0.6583253145217896,1.4485549926757812
1716979896502364700,2.67536474609375,9.456734657287598,0.7205387353897095,1.3262219429016113
1716979896512078000,2.685078125,9.212367057800293,0.7851449251174927,1.1635099649429321
1716979896521791200,2.694791259765625,9.023334503173828,0.8476574420928955,0.9672985672950745
1716979896531504600,2.704504638671875,8.898907661437988,0.9002995491027832,0.7612167000770569
1716979896541217800,2.7142177734375,8.82951545715332,0.9481559991836548,0.5697908997535706
1716979896550931000,2.723930908203125,8.796015739440918,0.9936196208000183,0.3975076675415039
1716979896560644400,2.733644287109375,8.786444664001465,1.0582258701324463,0.2632105052471161
1716979896570357500,2.743357421875,8.784051895141602,1.1276177167892456,0.19381862878799438
1716979896580070700,2.753070556640625,8.74337387084961,1.2065808773040771,0.16510476171970367
1716979896589784000,2.7627841796875,8.666504859924316,1.3022937774658203,0.1579262912273407
1716979896599497200,2.772497314453125,8.55882740020752,1.4126626253128052,0.16271193325519562
1716979896609210400,2.78221044921875,8.432007789611816,1.5155540704727173,0.18424734473228455
1716979896618923800,2.791923828125,8.29561710357666,1.623231053352356,0.22013968229293823
1716979896628637000,2.801636962890625,8.173583030700684,1.7237296104431152,0.26081767678260803
1716979896638350000,2.81135009765625,8.082356452941895,1.8194425106048584,0.28504499793052673
1716979896648063500,2.8210634765625,8.046463966369629,1.9007984399795532,0.2922234535217285
1716979896657776600,2.830776611328125,8.077570915222168,1.9657038450241089,0.28504499793052673
1716979896667490000,2.840489990234375,8.16401195526123,2.0039889812469482,0.28504499793052673
1716979896677203200,2.850203125,8.305188179016113,2.008774518966675,0.3161516785621643
1716979896686916400,2.859916259765625,8.489435195922852,1.9968105554580688,0.36640095710754395
1716979896696629800,2.869629638671875,8.707481384277344,1.9848463535308838,0.42382872104644775
1716979896706343000,2.879343017578125,8.93958568572998,1.9872392416000366,0.47168517112731934
1716979896716056000,2.88905615234375,9.174081802368164,2.0159530639648438,0.4812564551830292
1716979896725769500,2.89876953125,9.411270141601562,2.042274236679077,0.45972105860710144
1716979896735482600,2.908482666015625,9.640981674194336,2.042274236679077,0.41186460852622986
1716979896745196000,2.918196044921875,9.835099220275879,2.0039889812469482,0.34725838899612427
1716979896754909200,2.9279091796875,9.995418548583984,1.9630118608474731,0.2560320198535919
1716979896764622300,2.937622314453125,10.153345108032227,1.9390836954116821,0.1459621787071228
1716979896774335700,2.947335693359375,10.308877944946289,1.9199410676956177,0.04785645380616188
1716979896784049000,2.957048828125,10.474282264709473,1.8744773864746094,-0.0023928226437419653
1716979896793762300,2.96676220703125,10.648958206176758,1.8194425106048584,-0.014356935396790504
1716979896803475500,2.976475341796875,10.83559799194336,1.7644076347351074,-0.0023928226437419653
1716979896813188600,2.986188720703125,11.046465873718262,1.7045869827270508,0.038285162299871445
1716979896822902000,2.995902099609375,11.245070457458496,1.6567305326461792,0.07178468257188797
1716979896832615200,3.005615234375,11.429317474365234,1.651944875717163,0.0933200865983963
1716979896842328600,3.01532861328125,11.599507331848145,1.659123420715332,0.11964113265275955
1716979896852041700,3.025041748046875,11.723933219909668,1.6375880241394043,0.1579262912273407
1716979896861755000,3.0347548828125,11.78136157989502,1.6136597394943237,0.20338992774486542
1716979896871468300,3.04446826171875,11.790932655334473,1.6351951360702515,0.23449662327766418
1716979896881181400,3.054181396484375,11.776576042175293,1.6806588172912598,0.2679961323738098
1716979896890894800,3.063894775390625,11.752647399902344,1.690230131149292,0.3400799036026001
1716979896900608000,3.07360791015625,11.740683555603027,1.6184453964233398,0.45254257321357727
1716979896910321200,3.083321044921875,11.75025463104248,1.5251253843307495,0.5267201066017151
1716979896920034600,3.09303466796875,11.802896499633789,1.450947880744934,0.5338985323905945
1716979896929747700,3.102747802734375,11.884252548217773,1.3525429964065552,0.48843491077423096
1716979896939460900,3.1124609375,11.944073677062988,1.2161520719528198,0.3927220106124878
1716979896949174300,3.12217431640625,11.939288139343262,1.0630114078521729,0.2632105052471161
1716979896958887400,3.131887451171875,11.850752830505371,0.9026923179626465,0.11964113265275955
1716979896968600800,3.141600830078125,11.673684120178223,0.7492526173591614,-0.019142581149935722
1716979896978314000,3.15131396484375,11.426924705505371,0.6176473498344421,-0.1579262912273407
1716979896988027100,3.161027099609375,11.13021469116211,0.5291129350662231,-0.3233301639556885
1716979896997740500,3.170740478515625,10.811670303344727,0.48843491077423096,-0.490827739238739
1716979897007453700,3.18045361328125,10.483853340148926,0.4956133961677551,-0.6367899179458618
1716979897017167000,3.1901669921875,10.160523414611816,0.5338985323905945,-0.7229315638542175
1716979897026880300,3.19988037109375,9.863813400268555,0.6032904386520386,-0.7157530784606934
1716979897036593400,3.209593505859375,9.617053031921387,0.6846463680267334,-0.6176473498344421
1716979897046306800,3.219306884765625,9.428020477294922,0.7588238716125488,-0.47168517112731934
1716979897056020000,3.22902001953125,9.286844253540039,0.8452646136283875,-0.27756741642951965
1716979897065733400,3.2387333984375,9.186046600341797,0.9409775137901306,-0.07178468257188797
1716979897075446500,3.248446533203125,9.075976371765137,1.0510473251342773,0.1052841991186142
1716979897085159700,3.25815966796875,8.951549530029297,1.1730812788009644,0.22971096634864807
1716979897094873000,3.267873046875,8.798408508300781,1.2951152324676514,0.2946162819862366
1716979897104586200,3.277586181640625,8.623434066772461,1.3884353637695312,0.3233301639556885
1716979897114299600,3.287299560546875,8.41286563873291,1.4629119634628296,0.3209373354911804
1716979897124012800,3.2970126953125,8.185546875,1.5227324962615967,0.28983065485954285
1716979897133726200,3.306726318359375,7.974679470062256,1.5658032894134521,0.2392822653055191
1716979897143439400,3.316439453125,7.804789066314697,1.5945172309875488,0.17228323221206665
1716979897153152500,3.326152587890625,7.694719314575195,1.6136597394943237,0.08135596662759781
1716979897162866000,3.335865966796875,7.618149280548096,1.6112669706344604,0
1716979897172579000,3.3455791015625,7.562815189361572,1.6016956567764282,-0.07896314561367035
1716979897182292200,3.355292236328125,7.5173516273498535,1.6064813137054443,-0.14117653667926788
1716979897192005600,3.365005615234375,7.488637447357178,1.6256239414215088,-0.17946170270442963
1716979897201718800,3.37471875,7.479066371917725,1.6639090776443481,-0.19621145725250244
1716979897211432200,3.38443212890625,7.493422985076904,1.7189439535140991,-0.19381862878799438
1716979897221145300,3.394145263671875,7.52931547164917,1.7691932916641235,-0.17228323221206665
1716979897230858800,3.403858642578125,7.58943510055542,1.7955143451690674,-0.13160525262355804
1716979897240572000,3.413572021484375,7.692326545715332,1.7955143451690674,-0.06939185410737991
1716979897250285000,3.42328515625,7.8454670906066895,1.781157374382019,-0.0023928226437419653
1716979897259998500,3.43299853515625,8.075178146362305,1.7596219778060913,0.05024927482008934
1716979897269711600,3.442711669921875,8.393722534179688,1.7309080362319946,0.1052841991186142
1716979897279424800,3.4524248046875,8.779266357421875,1.6567305326461792,0.1986042857170105
1716979897289138200,3.46213818359375,9.20279598236084,1.55623197555542,0.31375887989997864
1716979897298851300,3.471851318359375,9.648159980773926,1.4820544719696045,0.42382872104644775
1716979897308564700,3.481564697265625,10.100702285766602,1.434198021888733,0.5338985323905945
1716979897318278000,3.49127783203125,10.531709671020508,1.4126626253128052,0.6367899179458618
1716979897327991300,3.5009912109375,10.893026351928711,1.4054841995239258,0.7396813035011292
1716979897337704400,3.510704345703125,11.173285484313965,1.3980066776275635,0.8401798605918884
1716979897347417600,3.52041748046875,11.376675605773926,1.3956137895584106,0.9146564602851868
1716979897357131000,3.530131103515625,11.527722358703613,1.4413765668869019,0.924227774143219
1716979897366844200,3.53984423828125,11.652149200439453,1.5131611824035645,0.9098708033561707
1716979897376557600,3.5495576171875,11.738290786743164,1.55623197555542,0.9290133714675903
1716979897386270700,3.559270751953125,11.78136157989502,1.5825530290603638,0.9888339638710022
1716979897395984100,3.568984130859375,11.7957181930542,1.6304094791412354,1.0773683786392212
1716979897405697300,3.578697265625,11.822039604187012,1.709372639656067,1.1850453615188599
1716979897415410400,3.588410400390625,11.86750316619873,1.7931214570999146,1.323829174041748
1716979897425123800,3.598123779296875,11.901002883911133,1.8505492210388184,1.4629119634628296
1716979897434837000,3.6078369140625,11.88185977935791,1.8864415884017944,1.5658032894134521
1716979897444550400,3.61755029296875,11.810074806213379,1.8864415884017944,1.6208382844924927
1716979897454263600,3.627263671875,11.688041687011719,1.843370795249939,1.6256239414215088
1716979897463976700,3.636976806640625,11.527722358703613,1.7404793500900269,1.5825530290603638
1716979897473690000,3.646690185546875,11.36231803894043,1.5849459171295166,1.4988043308258057
1716979897483403300,3.6564033203125,11.21635627746582,1.3932210206985474,1.3980066776275635
1716979897493116700,3.66611669921875,11.094322204589844,1.1874382495880127,1.2975081205368042
1716979897502829800,3.675829833984375,11.003395080566406,0.9864411354064941,1.2137593030929565
1716979897512543200,3.685543212890625,10.91456127166748,0.8186444640159607,1.158724308013916
1716979897522256400,3.69525634765625,10.82841968536377,0.6966105103492737,1.1371889114379883
1716979897531969500,3.704969482421875,10.739885330200195,0.6176473498344421,1.1467602252960205
1716979897541683000,3.714682861328125,10.641779899597168,0.5697908997535706,1.1682956218719482
1716979897551396000,3.72439599609375,10.522138595581055,0.5506483316421509,1.1802598237991333
1716979897561109500,3.734109619140625,10.371091842651367,0.5578267574310303,1.1635099649429321
1716979897570822700,3.74382275390625,10.174880027770996,0.5961119532585144,1.1012966632843018
1716979897580535800,3.753535888671875,9.949954986572266,0.6559324860572815,0.9960124492645264
1716979897590249200,3.763249267578125,9.691230773925781,0.7229315638542175,0.8644071817398071
1716979897599962400,3.77296240234375,9.406484603881836,0.7899305820465088,0.732502818107605
1716979897609675800,3.78267578125,9.10229778289795,0.8691928386688232,0.6056832075119019
1716979897619389000,3.792388916015625,8.784051895141602,0.9720842242240906,0.5051847100257874
1716979897629102300,3.802102294921875,8.455936431884766,1.0917253494262695,0.4262215197086334
1716979897638815500,3.8118154296875,8.134998321533203,1.2113664150238037,0.3807578980922699
1716979897648528600,3.821528564453125,7.833503246307373,1.3262219429016113,0.3568296730518341
1716979897658242000,3.831241943359375,7.5652079582214355,1.4413765668869019,0.3448655605316162
1716979897667955200,3.840955078125,7.340282440185547,1.55623197555542,0.34247273206710815
1716979897677668600,3.850668701171875,7.167999267578125,1.6663018465042114,0.3329014480113983
1716979897687381800,3.8603818359375,7.074679374694824,1.7715860605239868,0.3209373354911804
1716979897697095200,3.87009521484375,7.0531439781188965,1.8649061918258667,0.2946162819862366
1716979897706808300,3.879808349609375,7.136892795562744,1.9319051504135132,0.2632105052471161
1716979897716521500,3.889521484375,7.3043904304504395,1.9657038450241089,0.22971096634864807
1716979897726235000,3.89923486328125,7.512565612792969,1.9657038450241089,0.1818545162677765
1716979897735948000,3.908947998046875,7.754539966583252,1.9728822708129883,0.12921242415905
1716979897745661400,3.918661376953125,8.03210735321045,1.9896320104599,0.10289137065410614
1716979897755374600,3.92837451171875,8.345866203308105,2.0207388401031494,0.11724831163883209
1716979897765087700,3.938087646484375,8.654540061950684,2.056631088256836,0.1866401731967926
1716979897774801200,3.94780126953125,8.95394229888916,2.1020946502685547,0.26560330390930176
1716979897784514300,3.957514404296875,9.238688468933105,2.1571295261383057,0.33529427647590637
1716979897794227700,3.967227783203125,9.47348403930664,2.20737886428833,0.3735794425010681
1716979897803940900,3.97694091796875,9.655338287353516,2.2337000370025635,0.3640081584453583
1716979897813654300,3.986654296875,9.770194053649902,2.2480568885803223,0.3233301639556885
1716979897823367400,3.996367431640625,9.856635093688965,2.2504496574401855,0.2799602448940277
1716979897833080800,4.006080810546875,9.959526062011719,2.2360928058624268,0.24406790733337402
1716979897842794000,4.0157939453125,10.122238159179688,2.214557409286499,0.2392822653055191
1716979897852507100,4.025507080078125,10.361519813537598,2.197807550430298,0.27038896083831787
1716979897862220500,4.035220458984375,10.658529281616211,2.169093608856201,0.31854450702667236
1716979897871933700,4.04493359375,10.977073669433594,2.1164517402648926,0.3448655605316162
1716979897881647000,4.054647216796875,11.316854476928711,2.073380708694458,0.33529427647590637
1716979897891360300,4.0643603515625,11.659327507019043,2.032702922821045,0.30658039450645447
1716979897901073700,4.07407373046875,11.960823059082031,1.9800606966018677,0.2874378263950348
1716979897910786800,4.083786865234375,12.193225860595703,1.9103697538375854,0.31375887989997864
1716979897920500200,4.093500244140625,12.370294570922852,1.8218353986740112,0.4094717800617218
1716979897930213400,4.10321337890625,12.528221130371094,1.683051586151123,0.579362154006958
1716979897939926500,4.112926513671875,12.73190975189209,1.4676976203918457,0.7995018362998962
1716979897949640000,4.122639892578125,12.997513771057129,1.1874382495880127,0.9912267923355103
1716979897959353000,4.13235302734375,13.339985847473145,0.9098708033561707,1.0869396924972534
1716979897969066500,4.14206640625,13.706088066101074,0.6726822853088379,1.0701899528503418
1716979897978779600,4.151779541015625,13.971990585327148,0.4549354016780853,0.9385846853256226
1716979897988493000,4.1614931640625,14.077274322509766,0.2560320198535919,0.7277171611785889
1716979897998206200,4.171206298828125,14.000704765319824,0.08853443711996078,0.4860421121120453
1716979898007919400,4.18091943359375,13.694124221801758,-0.03349951654672623,0.24406790733337402
1716979898017632800,4.1906328125,13.194024085998535,-0.10049854964017868,0.014356935396790504
1716979898027346000,4.200345947265625,12.530613899230957,-0.10289137065410614,-0.19621145725250244
1716979898037059300,4.210059326171875,11.786147117614746,-0.02392822690308094,-0.3735794425010681
1716979898046772500,4.2197724609375,11.044073104858398,0.12203395366668701,-0.49322056770324707
1716979898056486000,4.22948583984375,10.375877380371094,0.27038896083831787,-0.5147559642791748
1716979898066199000,4.239198974609375,9.8207426071167,0.385543555021286,-0.4334000051021576
1716979898075912400,4.248912353515625,9.40169906616211,0.46450668573379517,-0.2946162819862366
1716979898085625600,4.25862548828125,9.104690551757812,0.5530411601066589,-0.14835500717163086
1716979898095338800,4.2683388671875,8.913264274597168,0.6583253145217896,-0.02392822690308094
1716979898105052200,4.27805224609375,8.779266357421875,0.7564310431480408,0.07896314561367035
1716979898114765300,4.287765380859375,8.656932830810547,0.8353942036628723,0.16510476171970367
1716979898124478700,4.297478759765625,8.52054214477539,0.9026923179626465,0.2392822653055191
1716979898134191900,4.30719189453125,8.365009307861328,0.9696913957595825,0.2922234535217285
1716979898143905300,4.3169052734375,8.17836856842041,1.0342975854873657,0.3281157910823822
1716979898153618400,4.326618408203125,7.969893932342529,1.0893324613571167,0.3496512174606323
1716979898163331600,4.33633154296875,7.744968891143799,1.1515458822250366,0.3520440459251404
1716979898173045000,4.346044921875,7.5173516273498535,1.2233306169509888,0.33050861954689026
1716979898182758400,4.35575830078125,7.313961505889893,1.3094722032546997,0.28504499793052673
1716979898192471600,4.365471435546875,7.151249408721924,1.3956137895584106,0.23210379481315613
1716979898202184700,4.375184814453125,7.041179656982422,1.4676976203918457,0.1698904037475586
1716979898211898000,4.384898193359375,6.976274490356445,1.5227324962615967,0.10289137065410614
1716979898221611300,4.394611328125,6.94038200378418,1.5634105205535889,0.03349951654672623
1716979898231324700,4.40432470703125,6.93320369720459,1.6016956567764282,-0.03349951654672623
1716979898241037800,4.414037841796875,6.949953556060791,1.654337763786316,-0.08374879509210587
1716979898250751200,4.423751220703125,7.000202655792236,1.7261223793029785,-0.11246266216039658
1716979898260464400,4.43346435546875,7.079464912414551,1.80508553981781,-0.10049854964017868
1716979898270177500,4.443177490234375,7.1871418952941895,1.8744773864746094,-0.03349951654672623
1716979898279891000,4.452890869140625,7.33549690246582,1.9438693523406982,0.07896314561367035
1716979898289604000,4.46260400390625,7.553243637084961,2.008774518966675,0.20578274130821228
1716979898299317500,4.4723173828125,7.840681552886963,2.0709879398345947,0.31854450702667236
1716979898309030700,4.48203076171875,8.199904441833496,2.0997018814086914,0.4142574071884155
1716979898318744000,4.491744140625,8.63779067993164,2.066202402114868,0.490827739238739
1716979898328457200,4.501457275390625,9.09990406036377,1.9824535846710205,0.5506483316421509
1716979898338170600,4.511170654296875,9.51894760131836,1.8601205348968506,0.5961119532585144
1716979898347883800,4.5208837890625,9.868598937988281,1.7285152673721313,0.6152545213699341
1716979898357597200,4.53059716796875,10.148558616638184,1.6495521068572998,0.5889334678649902
1716979898367310300,4.540310302734375,10.354341506958008,1.6399807929992676,0.5650052428245544
1716979898377023500,4.5500234375,10.488638877868652,1.6351951360702515,0.612861692905426
1716979898386737000,4.55973681640625,10.574780464172363,1.6136597394943237,0.7468597888946533
1716979898396450000,4.569449951171875,10.641779899597168,1.6184453964233398,0.8979067206382751
1716979898406163500,4.57916357421875,10.754241943359375,1.654337763786316,1.0031908750534058
1716979898415876600,4.588876708984375,10.936097145080566,1.695015788078308,1.0534402132034302
1716979898425590000,4.598590087890625,11.187642097473145,1.7165511846542358,1.0941181182861328
1716979898435303200,4.60830322265625,11.47238826751709,1.7165511846542358,1.1419745683670044
1716979898445016600,4.6180166015625,11.798110961914062,1.6998014450073242,1.201795220375061
1716979898454729700,4.627729736328125,12.150155067443848,1.6663018465042114,1.2783654928207397
1716979898464443100,4.637443115234375,12.497114181518555,1.5777673721313477,1.3668999671936035
1716979898474156300,4.64715625,12.784552574157715,1.450947880744934,1.4413765668869019
1716979898483869700,4.65686962890625,12.983156204223633,1.2831511497497559,1.501197099685669
1716979898493582800,4.666582763671875,13.09083366394043,1.074975609779358,1.5514464378356934
1716979898503296000,4.6762958984375,13.131511688232422,0.8428717851638794,1.5777673721313477
1716979898513009400,4.686009521484375,13.133904457092285,0.6152545213699341,1.5801602602005005
1716979898522722600,4.69572265625,13.1123685836792,0.41186460852622986,1.5514464378356934
1716979898532436000,4.70543603515625,13.06690502166748,0.22971096634864807,1.5083755254745483
1716979898542149000,4.715149169921875,12.978370666503906,0.07417750358581543,1.4653047323226929
1716979898551862500,4.724862548828125,12.82762336730957,-0.02871387079358101,1.4174482822418213
1716979898561575700,4.73457568359375,12.600006103515625,-0.062213387340307236,1.3573286533355713
1716979898571289000,4.7442890625,12.267403602600098,-0.03349951654672623,1.292722463607788
1716979898581002200,4.754002197265625,11.834003448486328,0.04307080805301666,1.2233306169509888
1716979898590715600,4.763715576171875,11.314461708068848,0.14835500717163086,1.170688509941101
1716979898600428800,4.7734287109375,10.723135948181152,0.275174617767334,1.1228320598602295
1716979898610142000,4.783141845703125,10.095916748046875,0.4214358925819397,1.0558329820632935
1716979898619855400,4.79285546875,9.459127426147461,0.5841478109359741,0.9672985672950745
1716979898629568500,4.802568603515625,8.8438720703125,0.7588238716125488,0.857228696346283
1716979898639282000,4.812281982421875,8.271688461303711,0.9337990283966064,0.7229315638542175
1716979898648995000,4.8219951171875,7.764111042022705,1.1060823202133179,0.5769693851470947
1716979898658708500,4.83170849609375,7.3283185958862305,1.2616157531738281,0.4501497745513916
1716979898668421600,4.841421630859375,6.964310169219971,1.3884353637695312,0.3448655605316162
1716979898678135000,4.851135009765625,6.672386169433594,1.4940186738967896,0.26560330390930176
1716979898687848200,4.86084814453125,6.449554443359375,1.5777673721313477,0.20578274130821228
1716979898697561600,4.8705615234375,6.2892351150512695,1.654337763786316,0.15314064919948578
1716979898707274800,4.880274658203125,6.181558132171631,1.7309080362319946,0.1052841991186142
1716979898716988200,4.88998828125,6.1241302490234375,1.8146568536758423,0.064606212079525
1716979898726701300,4.899701416015625,6.114559173583984,1.896012783050537,0.03349951654672623
1716979898736414700,4.909414794921875,6.143272876739502,1.9486548900604248,0.02392822690308094
1716979898746128000,4.9191279296875,6.191129684448242,1.9752750396728516,0.03349951654672623
1716979898755841000,4.928841064453125,6.305984973907471,2.0135602951049805,0.05503492057323456
1716979898765554400,4.938554443359375,6.550352096557617,2.0781664848327637,0.08374879509210587
1716979898775267600,4.948267578125,6.961917400360107,2.1858434677124023,0.10767702013254166
1716979898784981000,4.95798095703125,7.5412797927856445,2.2911276817321777,0.16031911969184875
1716979898794694100,4.967694091796875,8.219046592712402,2.3294129371643066,0.25363919138908386
1716979898804407600,4.977407470703125,8.896514892578125,2.30069899559021,0.39511483907699585
1716979898814120700,4.98712060546875,9.52612590789795,2.2169501781463623,0.5506483316421509
1716979898823834000,4.996834228515625,10.04566764831543,2.128415822982788,0.6726822853088379
1716979898833547300,5.00654736328125,10.42642593383789,2.1092731952667236,0.7372884750366211
1716979898843260700,5.0162607421875,10.701600074768066,2.1379871368408203,0.7612167000770569
1716979898852973800,5.025973876953125,10.878668785095215,2.2121646404266357,0.7779664397239685
1716979898862687200,5.035687255859375,11.008180618286133,2.30069899559021,0.8162516355514526
1716979898872400400,5.045400390625,11.132607460021973,2.355733871459961,0.8763712644577026
1716979898882113800,5.05511376953125,11.278569221496582,2.379662036895752,0.9433703422546387
1716979898891827000,5.064826904296875,11.491530418395996,2.372483730316162,1.0055837631225586
1716979898901540400,5.074540283203125,11.814861297607422,2.307877540588379,1.0654042959213257
1716979898911253500,5.08425341796875,12.186047554016113,2.204986095428467,1.0941181182861328
1716979898920967000,5.093966796875,12.535399436950684,2.097309112548828,1.0462616682052612
1716979898930680000,5.10368017578125,12.8180513381958,2.0135602951049805,0.9672985672950745
1716979898940393500,5.1133935546875,12.997513771057129,1.9390836954116821,0.9050851464271545
1716979898950106600,5.123106689453125,13.050155639648438,1.8864415884017944,0.8739784955978394
1716979898959820000,5.132820068359375,12.978370666503906,1.8912272453308105,0.8644071817398071
1716979898969533200,5.142533203125,12.839587211608887,1.953440546989441,0.8739784955978394
1716979898979246300,5.152246337890625,12.691231727600098,2.0159530639648438,0.9026923179626465
1716979898988959700,5.161959716796875,12.559328079223633,2.0518453121185303,0.9218349456787109
1716979898998673000,5.1716728515625,12.482757568359375,2.0518453121185303,0.9074779748916626
1716979899008386300,5.18138623046875,12.466008186340332,1.994417667388916,0.8620143532752991
1716979899018099500,5.191099365234375,12.473186492919922,1.8649061918258667,0.7803592681884766
1716979899027812900,5.200812744140625,12.470793724060059,1.7045869827270508,0.6559324860572815
1716979899037526000,5.210526123046875,12.41575813293457,1.5275181531906128,0.5051847100257874
1716979899047239400,5.220239501953125,12.279367446899414,1.350150227546692,0.3329014480113983
1716979899056952600,5.22995263671875,12.061321258544922,1.194616675376892,0.16031911969184875
1716979899066666000,5.239666015625,11.77418327331543,1.074975609779358,-0.014356935396790504
1716979899076379100,5.249379150390625,11.446066856384277,0.9960124492645264,-0.16510476171970367
1716979899086092500,5.259092529296875,11.089536666870117,0.9457631707191467,-0.2799602448940277
1716979899095805700,5.2688056640625,10.71834945678711,0.9194421172142029,-0.33529427647590637
1716979899105519000,5.27851904296875,10.337592124938965,0.9194421172142029,-0.33050861954689026
1716979899115232300,5.288232177734375,9.964311599731445,0.9481559991836548,-0.2799602448940277
1716979899124945700,5.297945556640625,9.59791088104248,0.9888339638710022,-0.20338992774486542
1716979899134658800,5.307658935546875,9.236295700073242,1.0271191596984863,-0.12203395366668701
1716979899144372200,5.317372314453125,8.891729354858398,1.0510473251342773,-0.04785645380616188
1716979899154085400,5.32708544921875,8.5731840133667,1.0630114078521729,0.016749758273363113
1716979899163798800,5.336798828125,8.283653259277344,1.072582721710205,0.040677983313798904
1716979899173512000,5.346511962890625,8.034500122070312,1.074975609779358,0.03349951654672623
1716979899183225300,5.356225341796875,7.816753387451172,1.0773683786392212,0.009571290574967861
1716979899192938500,5.3659384765625,7.632505893707275,1.0893324613571167,-0.0023928226437419653
1716979899202652000,5.37565185546875,7.464709281921387,1.1084750890731812,0.01196411345154047
1716979899212365000,5.385364990234375,7.316354274749756,1.1443674564361572,0.031106693670153618
1716979899222078500,5.395078369140625,7.189534664154053,1.2185449600219727,0.040677983313798904
1716979899231791600,5.40479150390625,7.093822002410889,1.316650629043579,0.04785645380616188
1716979899241505000,5.414505126953125,7.019644260406494,1.40279221534729,0.07178468257188797
1716979899251218200,5.42421826171875,6.959524631500244,1.4629119634628296,0.09810572862625122
1716979899260931600,5.433931640625,6.918846607208252,1.5107684135437012,0.11006984114646912
1716979899270644700,5.443644775390625,6.914061069488525,1.5490535497665405,0.10289137065410614
1716979899280358100,5.453358154296875,6.971488952636719,1.592124342918396,0.07417750358581543
1716979899290071300,5.4630712890625,7.108178615570068,1.651944875717163,0.02153540402650833
1716979899299784700,5.47278466796875,7.311568737030029,1.7117655277252197,-0.02392822690308094
1716979899309497900,5.482497802734375,7.536494255065918,1.7404793500900269,-0.04307080805301666
1716979899319211300,5.492211181640625,7.785646915435791,1.7380865812301636,-0.014356935396790504
1716979899328924400,5.50192431640625,8.067999839782715,1.7428722381591797,0.04785645380616188
1716979899338637800,5.511637939453125,8.384151458740234,1.7644076347351074,0.1339980661869049
1716979899348351000,5.52135107421875,8.709874153137207,1.776371717453003,0.2632105052471161
1716979899358064400,5.531064453125,9.016156196594238,1.7691932916641235,0.43579283356666565
1716979899367777500,5.540777587890625,9.296415328979492,1.750050663948059,0.610468864440918
1716979899377491000,5.550490966796875,9.552447319030762,1.7165511846542358,0.7612167000770569
1716979899387204000,5.5602041015625,9.789336204528809,1.678265929222107,0.8715856671333313
1716979899396917500,5.56991748046875,10.012167930603027,1.623231053352356,0.9457631707191467
1716979899406630700,5.579630615234375,10.220343589782715,1.5203397274017334,1.0007981061935425
1716979899416344000,5.589343994140625,10.421640396118164,1.415055513381958,1.0031908750534058
1716979899426057200,5.59905712890625,10.622636795043945,1.3764712810516357,0.924227774143219
1716979899435770600,5.6087705078125,10.830812454223633,1.4054841995239258,0.8234301209449768
1716979899445483800,5.61848388671875,11.029715538024902,1.4365909099578857,0.7851449251174927
1716979899455197200,5.628197265625,11.180463790893555,1.4581263065338135,0.8258228898048401
1716979899464910300,5.637910400390625,11.280961990356445,1.4940186738967896,0.9170492887496948
1716979899474623700,5.647623779296875,11.379068374633789,1.55623197555542,1.0414760112762451
1716979899484337000,5.6573369140625,11.474781036376953,1.5849459171295166,1.1850453615188599
1716979899494050300,5.66705029296875,11.53968620300293,1.5634105205535889,1.3022937774658203
1716979899503763500,5.676763427734375,11.573185920715332,1.5155540704727173,1.3573286533355713
1716979899513476900,5.686476806640625,11.587542533874512,1.4485549926757812,1.347757339477539
1716979899523190000,5.69618994140625,11.585149765014648,1.3573286533355713,1.287936806678772
1716979899532903400,5.7059033203125,11.568400382995605,1.2305090427398682,1.1994023323059082
1716979899542616600,5.715616455078125,11.549257278442383,1.0941181182861328,1.1060823202133179
1716979899552330000,5.725330078125,11.53968620300293,0.9601200819015503,1.0247262716293335
1716979899562043100,5.735043212890625,11.530115127563477,0.8476574420928955,0.9840483069419861
1716979899571756500,5.744756591796875,11.50857925415039,0.7540382146835327,1.0007981061935425
1716979899581469700,5.7544697265625,11.462817192077637,0.6822535395622253,1.0845468044281006
1716979899591183000,5.76418310546875,11.3718900680542,0.6367899179458618,1.189831018447876
1716979899600896300,5.773896240234375,11.213963508605957,0.6248258352279663,1.2783654928207397
1716979899610609700,5.783609619140625,10.99860954284668,0.643968403339386,1.3070793151855469
1716979899620322800,5.79332275390625,10.737492561340332,0.6822535395622253,1.2783654928207397
1716979899630036200,5.8030361328125,10.44796085357666,0.7277171611785889,1.1994023323059082
1716979899639749400,5.812749267578125,10.13898754119873,0.7588238716125488,1.0869396924972534
1716979899649462800,5.822462890625,9.847063064575195,0.7755736112594604,0.9385846853256226
1716979899659176000,5.832176025390625,9.588339805603027,0.7995018362998962,0.768395185470581
1716979899668889300,5.841889404296875,9.36341381072998,0.8330013751983643,0.6008976101875305
1716979899678602500,5.8516025390625,9.152546882629395,0.8620143532752991,0.45972105860710144
1716979899688316000,5.86131591796875,8.951549530029297,0.9074779748916626,0.3400799036026001
1716979899698029000,5.871029052734375,8.745766639709473,0.9720842242240906,0.2512463629245758
1716979899707742500,5.880742431640625,8.515756607055664,1.0534402132034302,0.18424734473228455
1716979899717455600,5.89045556640625,8.266902923583984,1.1515458822250366,0.11964113265275955
1716979899727169000,5.9001689453125,7.984251022338867,1.252044439315796,0.059820566326379776
1716979899736882200,5.909882080078125,7.685148239135742,1.3453645706176758,-0.004785645287483931
1716979899746595600,5.919595703125,7.388139247894287,1.4270195960998535,-0.062213387340307236
1716979899756309000,5.92930908203125,7.134500026702881,1.5131611824035645,-0.12921242415905
1716979899766022100,5.939022216796875,6.952346324920654,1.6112669706344604,-0.20099709928035736
1716979899775735600,5.948735595703125,6.897311210632324,1.7117655277252197,-0.27756741642951965
1716979899785448700,5.95844873046875,7.012166976928711,1.8098711967468262,-0.3161516785621643
1716979899795162000,5.968162109375,7.225427150726318,1.86729896068573,-0.2994019389152527
1716979899804875300,5.977875244140625,7.5173516273498535,1.8888343572616577,-0.2392822653055191
1716979899814588700,5.987588623046875,7.907680511474609,1.903191328048706,-0.13160525262355804
1716979899824301800,5.9973017578125,8.360222816467285,1.9414764642715454,0.0023928226437419653
1716979899834015200,6.00701513671875,8.85344409942627,1.9920248985290527,0.1698904037475586
1716979899843728400,6.016728271484375,9.332307815551758,2.032702922821045,0.37118661403656006
1716979899853441800,6.02644189453125,9.74387264251709,2.049452543258667,0.5817549824714661
1716979899863155000,6.036155029296875,10.062417030334473,2.0614166259765625,0.7181459069252014
1716979899872868400,6.045868408203125,10.299306869506836,2.1092731952667236,0.7492526173591614
1716979899882581500,6.05558154296875,10.493424415588379,2.1571295261383057,0.7229315638542175
1716979899892295000,6.065294921875,10.663314819335938,2.1619153022766113,0.6631109714508057
1716979899902008000,6.075008056640625,10.854741096496582,2.1236300468444824,0.5985047817230225
1716979899911721500,6.084721435546875,11.089536666870117,2.0542383193969727,0.5338985323905945
1716979899921434600,6.0944345703125,11.34796142578125,1.9319051504135132,0.5027918815612793
1716979899931148000,6.10414794921875,11.609078407287598,1.7835501432418823,0.4573282301425934
1716979899940861200,6.113861083984375,11.850752830505371,1.7021942138671875,0.3616153299808502
1716979899950574600,6.12357470703125,12.054142951965332,1.6878372430801392,0.24646073579788208
1716979899960288000,6.1332880859375,12.17647647857666,1.690230131149292,0.1818545162677765
1716979899970001200,6.143001220703125,12.171690940856934,1.6806588172912598,0.20099709928035736
1716979899979714600,6.152714599609375,12.035000801086426,1.7045869827270508,0.28983065485954285
1716979899989427700,6.162427734375,11.829217910766602,1.7979071140289307,0.4166502356529236
1716979899999141000,6.17214111328125,11.65693473815918,1.9151554107666016,0.5506483316421509
1716979900008854300,6.181854248046875,11.556435585021973,1.9872392416000366,0.701396107673645
1716979900018567700,6.191567626953125,11.51815128326416,1.9414764642715454,0.8500502705574036
1716979900028280800,6.20128076171875,11.537293434143066,1.8026927709579468,0.9314061999320984
1716979900037994200,6.210994140625,11.594720840454102,1.628016710281372,0.9074779748916626
1716979900047707400,6.220707275390625,11.65693473815918,1.434198021888733,0.7851449251174927
1716979900057420800,6.2304208984375,11.711969375610352,1.2376874685287476,0.612861692905426
1716979900067134000,6.240134033203125,11.733505249023438,1.0534402132034302,0.43579283356666565
1716979900076847400,6.249847412109375,11.685648918151855,0.890728235244751,0.28983065485954285
1716979900086560500,6.259560546875,11.556435585021973,0.7540382146835327,0.19381862878799438
1716979900096274000,6.26927392578125,11.364710807800293,0.6822535395622253,0.13878370821475983
1716979900105987300,6.2789873046875,11.115857124328613,0.6798607110977173,0.11006984114646912
1716979900115700500,6.288700439453125,10.82124137878418,0.7181459069252014,0.10049854964017868
1716979900125414000,6.298413818359375,10.517353057861328,0.7755736112594604,0.12203395366668701
1716979900135127000,6.308126953125,10.213165283203125,0.8353942036628723,0.1579262912273407
1716979900144840400,6.31784033203125,9.9140625,0.8883354067802429,0.19381862878799438
1716979900154553600,6.3275537109375,9.63619613647461,0.9314061999320984,0.22492532432079315
1716979900164267000,6.33726708984375,9.392127990722656,0.9696913957595825,0.24406790733337402
1716979900173980200,6.346980224609375,9.174081802368164,1.0151549577713013,0.22971096634864807
1716979900183693600,6.356693603515625,8.975478172302246,1.0654042959213257,0.20099709928035736
1716979900193406700,6.36640673828125,8.781659126281738,1.0893324613571167,0.17706887423992157
1716979900203120000,6.3761201171875,8.582756042480469,1.103689432144165,0.16749759018421173
1716979900212833300,6.385833251953125,8.376973152160645,1.1156535148620605,0.15553347766399384
1716979900222546700,6.395546630859375,8.17119026184082,1.1395817995071411,0.1459621787071228
1716979900232260000,6.405260009765625,7.979465484619141,1.1635099649429321,0.15074782073497772
1716979900241973200,6.41497314453125,7.807182312011719,1.2041879892349243,0.1579262912273407
1716979900251686700,6.424686767578125,7.656434059143066,1.2711870670318604,0.15314064919948578
1716979900261399800,6.43439990234375,7.52213716506958,1.347757339477539,0.13878370821475983
1716979900271113200,6.44411328125,7.39771032333374,1.4198411703109741,0.11485548317432404
1716979900280826400,6.453826416015625,7.292426109313965,1.4892330169677734,0.06699903309345245
1716979900290539800,6.463539794921875,7.203891754150391,1.5538392066955566,-0.009571290574967861
1716979900300253000,6.4732529296875,7.1249284744262695,1.6064813137054443,-0.11006984114646912
1716979900309966300,6.48296630859375,7.057929515838623,1.6351951360702515,-0.2105683982372284
1716979900319679700,6.4926796875,6.9930243492126465,1.6375880241394043,-0.2922234535217285
1716979900329393000,6.502392822265625,6.93320369720459,1.6351951360702515,-0.35922250151634216
1716979900339106300,6.512106201171875,6.918846607208252,1.6567305326461792,-0.4142574071884155
1716979900348819500,6.5218193359375,6.983452796936035,1.6998014450073242,-0.4214358925819397
1716979900358532900,6.531532958984375,7.127321243286133,1.77397882938385,-0.3616153299808502
1716979900368246000,6.54124609375,7.373782157897949,1.8577276468276978,-0.25363919138908386
1716979900377959400,6.55095947265625,7.725826263427734,1.92951238155365,-0.1052841991186142
1716979900387672600,6.560672607421875,8.187939643859863,1.9776679277420044,0.05503492057323456
1716979900397386000,6.570385986328125,8.764909744262695,1.9752750396728516,0.21296121180057526
1716979900407099100,6.58009912109375,9.435198783874512,1.9127626419067383,0.3568296730518341
1716979900416812500,6.5898125,10.134202003479004,1.8170497417449951,0.4668995141983032
1716979900426526000,6.59952587890625,10.826026916503906,1.695015788078308,0.5530411601066589
1716979900436239000,6.609239013671875,11.4652099609375,1.5394822359085083,0.6200401782989502
1716979900445952500,6.618952392578125,11.99910831451416,1.3908281326293945,0.6535396575927734
1716979900455665700,6.628665771484375,12.3942232131958,1.2903295755386353,0.646361231803894
1716979900465379000,6.638379150390625,12.660125732421875,1.2376874685287476,0.643968403339386
1716979900475092200,6.64809228515625,12.832408905029297,1.1994023323059082,0.675075113773346
1716979900484805600,6.6578056640625,12.937692642211914,1.1874382495880127,0.7492526173591614
1716979900494518800,6.667518798828125,13.016655921936035,1.2281162738800049,0.8282157182693481
1716979900504232200,6.677232177734375,13.121940612792969,1.292722463607788,0.9337990283966064
1716979900513945300,6.6869453125,13.256237030029297,1.311864972114563,1.0773683786392212
1716979900523658800,6.69665869140625,13.390235900878906,1.2664014101028442,1.2281162738800049
1716979900533372200,6.7063720703125,13.497912406921387,1.189831018447876,1.319043517112732
1716979900543085300,6.716085205078125,13.586446762084961,1.0917253494262695,1.3357932567596436
1716979900552798700,6.725798828125,13.63908863067627,0.9505487680435181,1.2855439186096191
1716979900562512000,6.735511962890625,13.627124786376953,0.7851449251174927,1.1994023323059082
1716979900572225300,6.745225341796875,13.536197662353516,0.612861692905426,1.103689432144165
1716979900581938400,6.7549384765625,13.337593078613281,0.4621138870716095,1.0103694200515747
1716979900591651800,6.76465185546875,13.023834228515625,0.35922250151634216,0.9314061999320984
1716979900601365000,6.774364990234375,12.619148254394531,0.33050861954689026,0.8715856671333313
1716979900611078400,6.784078369140625,12.123833656311035,0.3616153299808502,0.8330013751983643
1716979900620791800,6.793791748046875,11.558829307556152,0.4381856322288513,0.8210372924804688
1716979900630505000,6.8035048828125,10.940882682800293,0.5554339289665222,0.8234301209449768
1716979900640218400,6.81321826171875,10.308877944946289,0.6966105103492737,0.8500502705574036
1716979900649931500,6.822931640625,9.662516593933105,0.8428717851638794,0.8811569213867188
1716979900659645000,6.83264501953125,9.020941734313965,0.9984052777290344,0.9074779748916626
1716979900669358000,6.842358154296875,8.408080101013184,1.1515458822250366,0.9194421172142029
1716979900679071500,6.852071533203125,7.8526458740234375,1.292722463607788,0.9218349456787109
1716979900688785000,6.861784912109375,7.39053201675415,1.4198411703109741,0.9146564602851868
1716979900698498000,6.871498046875,7.041179656982422,1.5251253843307495,0.8883354067802429
1716979900708211500,6.88121142578125,6.854240417480469,1.6016956567764282,0.8353942036628723
1716979900717924600,6.890924560546875,6.825526714324951,1.6471593379974365,0.7827520966529846
1716979900727638000,6.900637939453125,6.926024913787842,1.6615161895751953,0.7181459069252014
1716979900737351200,6.91035107421875,7.108178615570068,1.659123420715332,0.6487540602684021
1716979900747064600,6.920064697265625,7.3043904304504395,1.628016710281372,0.5841478109359741
1716979900756778000,6.929778076171875,7.462316513061523,1.5873386859893799,0.5123631358146667
1716979900766491100,6.9394912109375,7.560422420501709,1.5634105205535889,0.4262215197086334
1716979900776204500,6.94920458984375,7.591827869415283,1.572981834411621,0.3233301639556885
1716979900785917700,6.958917724609375,7.5774712562561035,1.6208382844924927,0.21296121180057526
1716979900795631000,6.968631103515625,7.558029651641846,1.6854444742202759,0.13160525262355804
1716979900805344300,6.97834423828125,7.5412797927856445,1.7620147466659546,0.08614161610603333
1716979900815057700,6.9880576171875,7.553243637084961,1.8505492210388184,0.07657032459974289
1716979900824770800,6.997770751953125,7.622934818267822,1.9390836954116821,0.11246266216039658
1716979900834484200,7.007484130859375,7.764111042022705,2.0159530639648438,0.19142581522464752
1716979900844197600,7.01719775390625,7.977072715759277,2.0853450298309326,0.30658039450645447
1716979900853910800,7.026910888671875,8.238189697265625,2.135594129562378,0.4573282301425934
1716979900863624200,7.036624267578125,8.52772045135498,2.169093608856201,0.612861692905426
1716979900873337300,7.04633740234375,8.80798053741455,2.1882362365722656,0.734895646572113
1716979900883050800,7.05605078125,9.073583602905273,2.2121646404266357,0.7995018362998962
1716979900892764000,7.065763916015625,9.315557479858398,2.23848557472229,0.8090731501579285
1716979900902477300,7.075477294921875,9.51176929473877,2.2576282024383545,0.7827520966529846
1716979900912190700,7.085190673828125,9.664909362792969,2.2671995162963867,0.734895646572113
1716979900921903900,7.09490380859375,9.810872077941895,2.2671995162963867,0.6655037999153137
1716979900931617300,7.1046171875,9.978668212890625,2.2791635990142822,0.5865406394004822
1716979900941330400,7.114330322265625,10.182058334350586,2.2887349128723145,0.5051847100257874
1716979900951043800,7.1240439453125,10.438389778137207,2.2911276817321777,0.41186460852622986
1716979900960757200,7.13375732421875,10.754241943359375,2.2671995162963867,0.3448655605316162
1716979900970470400,7.143470458984375,11.115857124328613,2.1882362365722656,0.31375887989997864
1716979900980183800,7.153183837890625,11.510972023010254,2.0925233364105225,0.3041875660419464
1716979900989897000,7.16289697265625,11.879467010498047,2.032702922821045,0.31375887989997864
1716979900999610400,7.1726103515625,12.212368965148926,1.9872392416000366,0.37118661403656006
1716979901009323500,7.182323486328125,12.466008186340332,1.9199410676956177,0.4980062246322632
1716979901019037000,7.192036865234375,12.614362716674805,1.8625133037567139,0.643968403339386
1716979901028750000,7.20175,12.676875114440918,1.8505492210388184,0.7540382146835327
1716979901038463500,7.21146337890625,12.679267883300781,1.8481563329696655,0.8210372924804688
1716979901048177000,7.221177001953125,12.652947425842285,1.7691932916641235,0.859621524810791
1716979901057890000,7.23089013671875,12.629018783569336,1.6208382844924927,0.8330013751983643
1716979901067603500,7.240603515625,12.640982627868652,1.4605190753936768,0.7085745930671692
1716979901077316600,7.250316650390625,12.681660652160645,1.2975081205368042,0.5267201066017151
1716979901087030000,7.260030029296875,12.71037483215332,1.1084750890731812,0.33768710494041443
1716979901096743400,7.269743408203125,12.672089576721191,0.8955138921737671,0.1818545162677765
1716979901106456600,7.27945654296875,12.516257286071777,0.701396107673645,0.064606212079525
1716979901116170000,7.289169921875,12.243474960327148,0.5626124143600464,-0.02392822690308094
1716979901125883100,7.298883056640625,11.879467010498047,0.5051847100257874,-0.07417750358581543
1716979901135596500,7.308596435546875,11.434103012084961,0.5195416212081909,-0.062213387340307236
1716979901145309700,7.318309814453125,10.926525115966797,0.5889334678649902,-0.01196411345154047
1716979901155023000,7.328023193359375,10.397711753845215,0.7085745930671692,0.05742774158716202
1716979901164736500,7.337736572265625,9.866206169128418,0.8739784955978394,0.14835500717163086
1716979901174449700,7.34744970703125,9.384949684143066,1.0462616682052612,0.24167509377002716
1716979901184163000,7.3571630859375,8.987442016601562,1.165902853012085,0.3400799036026001
1716979901193876200,7.366876220703125,8.692825317382812,1.2233306169509888,0.4214358925819397
1716979901203589600,7.376589599609375,8.503792762756348,1.2329018115997314,0.45972105860710144
1716979901213302800,7.386302734375,8.417651176452637,1.2305090427398682,0.4573282301425934
1716979901223016200,7.39601611328125,8.405686378479004,1.2113664150238037,0.4381856322288513
1716979901232729600,7.4057294921875,8.424829483032227,1.1754741668701172,0.43100717663764954
1716979901242442800,7.41544287109375,8.432007789611816,1.1515458822250366,0.4453641176223755
1716979901252156200,7.42515625,8.400900840759277,1.158724308013916,0.48364928364753723
1716979901261869300,7.434869384765625,8.331509590148926,1.1994023323059082,0.5267201066017151
1716979901271582700,7.444582763671875,8.207082748413086,1.256830096244812,0.5697908997535706
1716979901281296100,7.454296142578125,8.036892890930176,1.3142578601837158,0.6008976101875305
1716979901291009300,7.46400927734375,7.855038642883301,1.3645070791244507,0.610468864440918
1716979901300722700,7.47372265625,7.675576686859131,1.3956137895584106,0.5913262963294983
1716979901310435800,7.483435791015625,7.5412797927856445,1.410269856452942,0.524327278137207
1716979901320149200,7.493149169921875,7.4862446784973145,1.4054841995239258,0.4214358925819397
1716979901329862700,7.502862548828125,7.507780075073242,1.3812568187713623,0.28983065485954285
1716979901339575800,7.512575927734375,7.5942206382751465,1.3334003686904907,0.15074782073497772
1716979901349289200,7.522289306640625,7.742575645446777,1.2640085220336914,0.007178467698395252
1716979901359002400,7.53200244140625,7.9316086769104,1.194616675376892,-0.13160525262355804
1716979901368715800,7.5417158203125,8.127820014953613,1.1324033737182617,-0.23688943684101105
1716979901378429000,7.551428955078125,8.298009872436523,1.0845468044281006,-0.2727817893028259
1716979901388142300,7.561142333984375,8.44157886505127,1.0462616682052612,-0.23210379481315613
1716979901397855700,7.570855712890625,8.5731840133667,1.0295119285583496,-0.13639089465141296
1716979901407569000,7.58056884765625,8.71226692199707,1.0510473251342773,0
1716979901417282300,7.5902822265625,8.877371788024902,1.103689432144165,0.14835500717163086
1716979901426995500,7.599995361328125,9.104690551757812,1.1443674564361572,0.30179476737976074
1716979901436708900,7.609708984375,9.406484603881836,1.165902853012085,0.4405784606933594
1716979901446422300,7.61942236328125,9.75105094909668,1.1874382495880127,0.5578267574310303
1716979901456135400,7.629135498046875,10.107880592346191,1.197009563446045,0.6702894568443298
1716979901465848800,7.638848876953125,10.443175315856934,1.197009563446045,0.8042874932289124
1716979901475562000,7.64856201171875,10.723135948181152,1.1850453615188599,0.9577272534370422
1716979901485275400,7.658275390625,10.933704376220703,1.1778669357299805,1.1180464029312134
1716979901494988800,7.66798876953125,11.072786331176758,1.2041879892349243,1.252044439315796
1716979901504702000,7.677701904296875,11.185249328613281,1.2592228651046753,1.3716856241226196
1716979901514415400,7.687415283203125,11.283354759216309,1.3142578601837158,1.501197099685669
1716979901524128500,7.69712841796875,11.391032218933105,1.3453645706176758,1.6615161895751953
1716979901533842000,7.706842041015625,11.52532958984375,1.3525429964065552,1.8242281675338745
1716979901543555300,7.716555419921875,11.668898582458496,1.3692927360534668,1.958226203918457
1716979901553268500,7.7262685546875,11.848360061645508,1.374078392982483,2.066202402114868
1716979901562982000,7.73598193359375,12.058928489685059,1.311864972114563,2.142772674560547
1716979901572695000,7.745695068359375,12.274581909179688,1.189831018447876,2.1619153022766113
1716979901582408400,7.755408447265625,12.475579261779785,1.0342975854873657,2.1332013607025146
1716979901592121900,7.765121826171875,12.633804321289062,0.8548358678817749,2.0614166259765625
1716979901601835000,7.7748349609375,12.736696243286133,0.6535396575927734,1.9872392416000366
1716979901611548400,7.78454833984375,12.765409469604492,0.4453641176223755,1.9127626419067383
1716979901621261600,7.794261474609375,12.693625450134277,0.2584248483181,1.831406593322754
1716979901630975000,7.80397509765625,12.492328643798828,0.12203395366668701,1.7428722381591797
1716979901640688400,7.8136884765625,12.164511680603027,0.040677983313798904,1.6375880241394043
1716979901650401500,7.823401611328125,11.714362144470215,0.016749758273363113,1.532303810119629
1716979901660115000,7.833114990234375,11.178071022033691,0.05503492057323456,1.4294124841690063
1716979901669828000,7.842828125,10.598709106445312,0.13878370821475983,1.342971682548523
1716979901679541500,7.85254150390625,10.0073823928833,0.24646073579788208,1.280758261680603
1716979901689255000,7.8622548828125,9.444769859313965,0.36640095710754395,1.2400803565979004
1716979901698968000,7.871968017578125,8.941978454589844,0.490827739238739,1.194616675376892
1716979901708681500,7.881681396484375,8.53729248046875,0.610468864440918,1.1228320598602295
1716979901718394600,7.89139453125,8.235795974731445,0.6966105103492737,1.0199406147003174
1716979901728108000,7.90110791015625,8.022536277770996,0.7468597888946533,0.890728235244751
1716979901737821400,7.910821533203125,7.8693952560424805,0.7636095285415649,0.7372884750366211
1716979901747534600,7.92053466796875,7.752147197723389,0.7731808423995972,0.5626124143600464
1716979901757248000,7.930248046875,7.661220073699951,0.7803592681884766,0.3735794425010681
1716979901766961200,7.939961181640625,7.58943510055542,0.7851449251174927,0.17706887423992157
1716979901776674600,7.949674560546875,7.536494255065918,0.8018946647644043,-0.0023928226437419653
1716979901786388000,7.959387939453125,7.507780075073242,0.8258228898048401,-0.12203395366668701
1716979901796101000,7.96910107421875,7.500601768493652,0.8644071817398071,-0.17946170270442963
1716979901805814500,7.978814453125,7.512565612792969,0.9337990283966064,-0.1986042857170105
1716979901815527700,7.988527587890625,7.519744396209717,1.0319048166275024,-0.19621145725250244
1716979901825241000,7.998240966796875,7.531708240509033,1.134796142578125,-0.17228323221206665
1716979901834954500,8.00795458984375,7.608577728271484,1.2113664150238037,-0.13160525262355804
1716979901844667600,8.017667724609375,7.754539966583252,1.2664014101028442,-0.08135596662759781
1716979901854381000,8.027381103515625,7.934001445770264,1.316650629043579,-0.02871387079358101
1716979901864094200,8.03709423828125,8.15683364868164,1.3692927360534668,0.035892341285943985
1716979901873807600,8.0468076171875,8.439186096191406,1.4246268272399902,0.11006984114646912
1716979901883521000,8.05652099609375,8.776873588562012,1.4916257858276367,0.1818545162677765
1716979901893234200,8.066234130859375,9.147761344909668,1.5586248636245728,0.2560320198535919
1716979901902947600,8.075947509765625,9.545269012451172,1.6088740825653076,0.33529427647590637
1716979901912661000,8.085660888671875,9.918848037719727,1.654337763786316,0.4142574071884155
1716979901922374100,8.0953740234375,10.239486694335938,1.721336841583252,0.4788636267185211
1716979901932087600,8.105087646484375,10.514960289001465,1.8026927709579468,0.524327278137207
1716979901941800700,8.11480078125,10.732707023620605,1.86729896068573,0.5530411601066589
1716979901951514000,8.12451416015625,10.904990196228027,1.9199410676956177,0.5650052428245544
1716979901961227500,8.1342275390625,11.075180053710938,1.953440546989441,0.5482555031776428
1716979901970940700,8.143940673828125,11.259427070617676,1.9680966138839722,0.4980062246322632
1716979901980654000,8.153654052734375,11.45563793182373,1.970489501953125,0.4214358925819397
1716979901990367200,8.1633671875,11.659327507019043,1.922333836555481,0.3640081584453583
1716979902000080600,8.17308056640625,11.857932090759277,1.83619225025177,0.3329014480113983
1716979902009794000,8.1827939453125,12.0302152633667,1.7596219778060913,0.3161516785621643
1716979902019507200,8.192507080078125,12.19083309173584,1.690230131149292,0.32572299242019653
1716979902029220600,8.202220703125,12.265010833740234,1.6064813137054443,0.37118661403656006
1716979902038934000,8.21193408203125,12.353545188903809,1.5179468393325806,0.4621138870716095
1716979902048647200,8.221647216796875,12.477972030639648,1.4868401288986206,0.5099703073501587
1716979902058360600,8.231360595703125,12.578470230102539,1.5131611824035645,0.524327278137207
1716979902068073700,8.24107373046875,12.669696807861328,1.5179468393325806,0.5410770177841187
1716979902077787100,8.250787109375,12.760623931884766,1.4676976203918457,0.5721837282180786
1716979902087500500,8.26050048828125,12.839587211608887,1.374078392982483,0.6296114325523376
1716979902097213700,8.270213623046875,12.932907104492188,1.2855439186096191,0.6942176818847656
1716979902106927000,8.279927001953125,12.93529987335205,1.1324033737182617,0.7444669604301453
1716979902116640300,8.28964013671875,12.791730880737305,0.9050851464271545,0.7779664397239685
1716979902126353700,8.299353759765625,12.580862998962402,0.6343970894813538,0.7181459069252014
1716979902136067000,8.309067138671875,12.327223777770996,0.39990049600601196,0.5602195858955383
1716979902145780200,8.3187802734375,12.025429725646973,0.2153540402650833,0.3209373354911804
1716979902155493600,8.32849365234375,11.642578125,0.07417750358581543,0.040677983313798904
1716979902165207000,8.33820703125,11.228320121765137,-0.038285162299871445,-0.23449662327766418
1716979902174920200,8.347920166015625,10.81406307220459,-0.0933200865983963,-0.47168517112731934
1716979902184633600,8.357633544921875,10.43360424041748,-0.059820566326379776,-0.6678966283798218
1716979902194346800,8.3673466796875,10.03848934173584,0.02632104977965355,-0.7755736112594604
1716979902204060200,8.37706005859375,9.631410598754883,0.11006984114646912,-0.7588238716125488
1716979902213773600,8.386773681640625,9.238688468933105,0.18903298676013947,-0.646361231803894
1716979902223486700,8.39648681640625,8.891729354858398,0.2826521694660187,-0.5027918815612793
1716979902233200000,8.4062001953125,8.597112655639648,0.3975076675415039,-0.37597227096557617
1716979902242913500,8.41591357421875,8.345866203308105,0.5003990530967712,-0.2632105052471161
1716979902252626700,8.425626708984375,8.115856170654297,0.5913262963294983,-0.17946170270442963
1716979902262340000,8.435340087890625,7.888537883758545,0.6678966283798218,-0.12681959569454193
1716979902272053500,8.445053466796875,7.656434059143066,0.7420741319656372,-0.10289137065410614
1716979902281766700,8.4547666015625,7.416852951049805,0.8258228898048401,-0.08614161610603333
1716979902291480000,8.46447998046875,7.167999267578125,0.9050851464271545,-0.064606212079525
1716979902301193200,8.474193115234375,6.9068827629089355,0.9696913957595825,-0.014356935396790504
1716979902310906600,8.48390673828125,6.655636310577393,1.012762188911438,0.06699903309345245
1716979902320619800,8.493619873046875,6.432804584503174,1.0462616682052612,0.1459621787071228
1716979902330333200,8.503333251953125,6.248557090759277,1.0941181182861328,0.19142581522464752
1716979902340046600,8.513046630859375,6.126523494720459,1.1611171960830688,0.17946170270442963
1716979902349759700,8.522759765625,6.104988098144531,1.2233306169509888,0.1052841991186142
1716979902359473200,8.53247314453125,6.167201042175293,1.2640085220336914,-0.004785645287483931
1716979902369186600,8.5421865234375,6.27487850189209,1.2759727239608765,-0.09810572862625122
1716979902378899700,8.551899658203125,6.423233509063721,1.2496516704559326,-0.16749759018421173
1716979902388613000,8.561613037109375,6.619743824005127,1.2137593030929565,-0.24885354936122894
1716979902398326300,8.571326171875,6.868597507476807,1.1994023323059082,-0.33050861954689026
1716979902408039700,8.581039794921875,7.184749126434326,1.201795220375061,-0.39032918214797974
1716979902417753000,8.590753173828125,7.572386264801025,1.2089736461639404,-0.41186460852622986
1716979902427466200,8.60046630859375,8.005785942077637,1.2233306169509888,-0.37597227096557617
1716979902437179600,8.6101796875,8.479864120483398,1.220937728881836,-0.30658039450645447
1716979902446893000,8.61989306640625,9.025727272033691,1.1850453615188599,-0.23688943684101105
1716979902456606200,8.629606201171875,9.626625061035156,1.1204391717910767,-0.18424734473228455
1716979902466319600,8.639319580078125,10.25623607635498,1.0295119285583496,-0.13878370821475983
1716979902476033000,8.649032958984375,10.904990196228027,0.9122636318206787,-0.07896314561367035
1716979902485746200,8.65874609375,11.49392318725586,0.7851449251174927,-0.007178467698395252
1716979902495459600,8.66845947265625,11.98475170135498,0.6583253145217896,0.062213387340307236
1716979902505172700,8.6781728515625,12.367901802062988,0.5721837282180786,0.10767702013254166
1716979902514886100,8.68788623046875,12.645768165588379,0.5410770177841187,0.11006984114646912
1716979902524599600,8.697599609375,12.832408905029297,0.5506483316421509,0.08614161610603333
1716979902534312700,8.707312744140625,12.968799591064453,0.5817549824714661,0.05503492057323456
1716979902544026000,8.717026123046875,13.074084281921387,0.6224330067634583,0.05742774158716202
1716979902553739500,8.726739501953125,13.162618637084961,0.6655037999153137,0.10767702013254166
1716979902563452700,8.73645263671875,13.241880416870117,0.7037889361381531,0.20817556977272034
1716979902573166000,8.746166015625,13.320843696594238,0.7061817646026611,0.3616153299808502
1716979902582879500,8.75587939453125,13.395021438598633,0.6415755748748779,0.5171487927436829
1716979902592592600,8.765592529296875,13.452448844909668,0.5123631358146667,0.6272186636924744
1716979902602306000,8.77530615234375,13.49312686920166,0.3233301639556885,0.6846463680267334
1716979902612019200,8.785019287109375,13.550554275512695,0.08135596662759781,0.6678966283798218
1716979902621732600,8.794732666015625,13.607982635498047,-0.1866401731967926,0.6224330067634583
1716979902631446000,8.804446044921875,13.59362506866455,-0.45972105860710144,0.5697908997535706
1716979902641159200,8.8141591796875,13.481163024902344,-0.7037889361381531,0.5051847100257874
1716979902650872600,8.82387255859375,13.241880416870117,-0.8787640929222107,0.43579283356666565
1716979902660586000,8.8335859375,12.861122131347656,-0.9672985672950745,0.38315072655677795
1716979902670299100,8.843299072265625,12.351152420043945,-0.9649057388305664,0.34725838899612427
1716979902680012500,8.853012451171875,11.755040168762207,-0.8691928386688232,0.3496512174606323
1716979902689726000,8.862725830078125,11.111071586608887,-0.6966105103492737,0.3807578980922699
1716979902699439000,8.872439208984375,10.44796085357666,-0.47647079825401306,0.4573282301425934
1716979902709152500,8.882152587890625,9.784550666809082,-0.22492532432079315,0.5745765566825867
1716979902718865700,8.89186572265625,9.147761344909668,0.038285162299871445,0.6990033388137817
1716979902728579000,8.9015791015625,8.570791244506836,0.30658039450645447,0.8018946647644043
1716979902738292500,8.91129248046875,8.075178146362305,0.5626124143600464,0.8644071817398071
1716979902748005600,8.921005615234375,7.668398380279541,0.7875377535820007,0.8835497498512268
1716979902757719000,8.930718994140625,7.361817836761475,0.9672985672950745,0.8644071817398071
1716979902767432400,8.940432373046875,7.144071102142334,1.1012966632843018,0.8066803216934204
1716979902777145600,8.9501455078125,7.0025954246521,1.2065808773040771,0.7253243923187256
1716979902786859000,8.95985888671875,6.9236321449279785,1.2831511497497559,0.6487540602684021
1716979902796572200,8.969572265625,6.892525672912598,1.3405789136886597,0.5626124143600464
1716979902806285600,8.97928564453125,6.9068827629089355,1.3908281326293945,0.4740779995918274
1716979902815999000,8.9889990234375,6.966702938079834,1.4294124841690063,0.37836506962776184
1716979902825712000,8.998712158203125,7.038786888122559,1.4413765668869019,0.29700911045074463
1716979902835425500,9.008425537109375,7.120142936706543,1.4246268272399902,0.22492532432079315
1716979902845139000,9.018138916015625,7.223034381866455,1.4003994464874268,0.1459621787071228
1716979902854852000,9.02785205078125,7.354639530181885,1.3860424757003784,0.04307080805301666
1716979902864565500,9.0375654296875,7.5101728439331055,1.4054841995239258,-0.06939185410737991
1716979902874279000,9.04727880859375,7.6875410079956055,1.438983678817749,-0.1746760457754135
1716979902883992000,9.056991943359375,7.867002487182617,1.4916257858276367,-0.26081767678260803
1716979902893705500,9.06670556640625,8.053643226623535,1.55623197555542,-0.2874378263950348
1716979902903419000,9.0764189453125,8.254939079284668,1.6064813137054443,-0.2512463629245758
1716979902913132000,9.086132080078125,8.482256889343262,1.6423736810684204,-0.1579262912273407
1716979902922845400,9.095845458984375,8.714659690856934,1.6734803915023804,-0.019142581149935722
1716979902932558800,9.105558837890625,8.963513374328613,1.6806588172912598,0.12921242415905
1716979902942272000,9.11527197265625,9.243474006652832,1.6758731603622437,0.24646073579788208
1716979902951985400,9.1249853515625,9.562018394470215,1.683051586151123,0.2946162819862366
1716979902961698800,9.13469873046875,9.902098655700684,1.709372639656067,0.2826521694660187
1716979902971412000,9.144411865234375,10.261021614074707,1.745265007019043,0.24885354936122894
1716979902981125400,9.15412548828125,10.634601593017578,1.7524434328079224,0.20817556977272034
1716979902990838500,9.163838623046875,11.010573387145996,1.7261223793029785,0.15553347766399384
1716979903000552000,9.173552001953125,11.405388832092285,1.683051586151123,0.0933200865983963
1716979903010265300,9.183265380859375,11.793325424194336,1.6328023672103882,0.007178467698395252
1716979903019978500,9.192978515625,12.142976760864258,1.5825530290603638,-0.09571290761232376
1716979903029692000,9.20269189453125,12.427722930908203,1.5227324962615967,-0.1818545162677765
1716979903039405300,9.2124052734375,12.626626014709473,1.450947880744934,-0.19381862878799438
1716979903049118500,9.222118408203125,12.736696243286133,1.3860424757003784,-0.1339980661869049
1716979903058832000,9.231831787109375,12.760623931884766,1.3668999671936035,-0.02871387079358101
1716979903068545000,9.241544921875,12.722338676452637,1.40279221534729,0.10049854964017868
1716979903078258400,9.251258544921875,12.650554656982422,1.4629119634628296,0.23449662327766418
1716979903087971800,9.260971923828125,12.55693531036377,1.4916257858276367,0.37836506962776184
1716979903097685000,9.27068505859375,12.458828926086426,1.450947880744934,0.5003990530967712
1716979903107398400,9.2803984375,12.391830444335938,1.342971682548523,0.5673980712890625
1716979903117111800,9.29011181640625,12.353545188903809,1.1994023323059082,0.5554339289665222
1716979903126825000,9.299824951171875,12.236296653747559,0.2994019389152527,0.2225325107574463
1716979903136538400,9.309538330078125,12.08076286315918,-0.04307080805301666,-0.09571290761232376
1716979903146251800,9.319251708984375,11.719147682189941,-0.2874378263950348,-0.24167509377002716
1716979903155965000,9.32896484375,11.163714408874512,-0.4214358925819397,-0.4166502356529236
1716979903165678300,9.33867822265625,10.519745826721191,-0.5051847100257874,-0.5841478109359741
1716979903175391700,9.348391845703125,9.937990188598633,-0.4094717800617218,-0.7564310431480408
1716979903185105000,9.35810498046875,9.322735786437988,-0.13639089465141296,-0.9720842242240906
1716979903194818300,9.367818359375,8.85344409942627,0.23688943684101105,-1.1754741668701172
1716979903204531700,9.37753173828125,8.568398475646973,0.5913262963294983,-1.1611171960830688
1716979903214244900,9.387244873046875,8.424829483032227,0.8258228898048401,-0.9146564602851868
1716979903223958300,9.396958251953125,8.367402076721191,0.9074779748916626,-0.4668995141983032
1716979903233671700,9.406671630859375,8.338687896728516,0.9385846853256226,0.04546362906694412
1716979903243384800,9.416384765625,8.290831565856934,0.981655478477478,0.49322056770324707
1716979903253098200,9.42609814453125,8.175975799560547,1.1060823202133179,0.7588238716125488
1716979903262811600,9.435811767578125,7.95553731918335,1.2783654928207397,0.9098708033561707
1716979903272524800,9.44552490234375,7.658827304840088,1.3956137895584106,0.9720842242240906
1716979903282238200,9.45523828125,7.282855033874512,1.4003994464874268,0.924227774143219
1716979903291951600,9.46495166015625,6.983452796936035,1.3956137895584106,0.7564310431480408
1716979903301664800,9.474664794921875,6.775277137756348,1.4198411703109741,0.5650052428245544
1716979903311378200,9.484378173828125,6.713063716888428,1.438983678817749,0.33768710494041443
1716979903321091300,9.49409130859375,6.796812534332275,1.4365909099578857,0.13160525262355804
1716979903330804700,9.5038046875,6.952346324920654,1.40279221534729,-0.019142581149935722
1716979903340518100,9.51351806640625,7.163213729858398,1.3932210206985474,-0.12442677468061447
1716979903350231300,9.523231201171875,7.368996620178223,1.438983678817749,-0.2946162819862366
1716979903359944700,9.53294482421875,7.5942206382751465,1.4676976203918457,-0.4334000051021576
1716979903369658000,9.542658203125,7.917252063751221,1.407876968383789,-0.5386841893196106
1716979903379371300,9.552371337890625,8.079963684082031,1.3645070791244507,-0.5937191247940063
1716979903389084700,9.562084716796875,8.11824893951416,1.347757339477539,-0.646361231803894
1716979903398798000,9.571798095703125,8.219046592712402,1.4174482822418213,-0.7492526173591614
1716979903408511200,9.58151123046875,8.374580383300781,1.4940186738967896,-0.8500502705574036
1716979903418224600,9.591224609375,8.580363273620605,1.55623197555542,-0.8428717851638794
1716979903427938000,9.60093798828125,9.006584167480469,1.5466607809066772,-0.610468864440918
1716979903437651200,9.610651123046875,9.655338287353516,1.532303810119629,-0.2874378263950348
1716979903447364600,9.620364501953125,10.239486694335938,1.5227324962615967,0.1579262912273407
1716979903457078000,9.630078125,10.773385047912598,1.5753746032714844,0.46450668573379517
1716979903466791200,9.639791259765625,11.132607460021973,1.5849459171295166,0.7109674215316772
1716979903476504600,9.649504638671875,11.398210525512695,1.5131611824035645,0.9290133714675903
1716979903486218000,9.659218017578125,11.520544052124023,1.3764712810516357,1.1395817995071411
1716979903495931100,9.66893115234375,11.623435020446777,1.3094722032546997,1.2400803565979004
1716979903505644500,9.67864453125,11.747861862182617,1.3453645706176758,1.2975081205368042
1716979903515358000,9.68835791015625,11.845967292785645,1.3214362859725952,1.4054841995239258
1716979903525071000,9.698071044921875,11.8890380859375,1.1850453615188599,1.5586248636245728
1716979903534784500,9.707784423828125,11.850752830505371,1.1371889114379883,1.4940186738967896
1716979903544498000,9.717497802734375,11.872288703918457,1.319043517112732,1.2065808773040771
1716979903554211000,9.727211181640625,12.06640625,1.532303810119629,0.8715856671333313
1716979903563924500,9.736924560546875,12.145369529724121,1.5801602602005005,0.7468597888946533
1716979903573637600,9.7466376953125,12.193225860595703,1.532303810119629,0.6942176818847656
1716979903583351000,9.75635107421875,12.164511680603027,1.6998014450073242,0.7061817646026611
1716979903593064400,9.766064453125,12.071191787719727,1.8912272453308105,0.924227774143219
1716979903602777900,9.77577783203125,11.968001365661621,1.8146568536758423,1.3860424757003784
1716979903612491000,9.785490966796875,11.75025463104248,1.5131611824035645,1.89840567111969
1716979903622204400,9.795204345703125,11.55404281616211,1.319043517112732,2.142772674560547
1716979903631917800,9.804917724609375,11.477173805236816,1.189831018447876,2.063809633255005
1716979903641631000,9.814630859375,11.745469093322754,0.9481559991836548,1.83619225025177
1716979903651344400,9.824344482421875,11.948859214782715,0.4621138870716095,1.6854444742202759
1716979903661057500,9.8340576171875,12.056535720825195,-0.038285162299871445,1.4437693357467651
1716979903670771000,9.84377099609375,12.025429725646973,-0.3568296730518341,1.225723385810852
1716979903680484400,9.853484375,11.793325424194336,-0.4549354016780853,1.0558329820632935
1716979903690197800,9.86319775390625,11.22353458404541,-0.45254257321357727,1.0271191596984863
1716979903699911000,9.872910888671875,10.45513916015625,-0.37118661403656006,0.9409775137901306
1716979903709624300,9.882624267578125,9.779765129089355,-0.05742774158716202,0.8859425783157349
1716979903719337500,9.89233740234375,9.169296264648438,0.2946162819862366,0.8787640929222107
1716979903729051000,9.90205078125,8.563612937927246,0.6774678826332092,0.9074779748916626
1716979903738764300,9.911764404296875,8.077570915222168,0.9481559991836548,0.9050851464271545
1716979903748477400,9.9214775390625,7.7593255043029785,1.1300104856491089,0.9170492887496948
1716979903758190800,9.93119091796875,7.543672561645508,1.1324033737182617,0.7516453862190247
1716979903767904300,9.940904296875,7.52931547164917,1.1874382495880127,0.646361231803894
1716979903777617700,9.95061767578125,7.747361660003662,1.220937728881836,0.5530411601066589
1716979903787330800,9.960330810546875,8.044071197509766,1.1491531133651733,0.45254257321357727
1716979903797044200,9.970044189453125,8.173583030700684,1.1108678579330444,0.4262215197086334
1716979903806757400,9.97975732421875,8.240582466125488,1.0917253494262695,0.4956133961677551
1716979903816470800,9.989470703125,8.159226417541504,1.1371889114379883,0.5721837282180786
1716979903826184200,9.99918408203125,8.058428764343262,1.2400803565979004,0.5721837282180786
1716979903835897600,10.008897705078125,8.00100040435791,1.3453645706176758,0.5386841893196106
1716979903845610800,10.01861083984375,7.974679470062256,1.4724832773208618,0.5123631358146667
1716979903855324200,10.02832421875,7.9244303703308105,1.5945172309875488,0.5147559642791748
1716979903865037300,10.038037353515625,7.850253105163574,1.6734803915023804,0.6032904386520386
1716979903874750700,10.047750732421875,7.761718273162842,1.7117655277252197,0.7109674215316772
1716979903884464000,10.057464111328125,7.728219032287598,1.7859430313110352,0.6798607110977173
1716979903894177300,10.06717724609375,7.850253105163574,1.77397882938385,0.5530411601066589
1716979903903890700,10.076890625,8.075178146362305,1.7189439535140991,0.39990049600601196
1716979903913604000,10.08660400390625,8.398508071899414,1.714158296585083,0.28983065485954285
1716979903923317500,10.0963173828125,8.81515884399414,1.7045869827270508,0.2512463629245758
1716979903933030700,10.10603076171875,9.238688468933105,1.6854444742202759,0.30179476737976074
1716979903942744000,10.115744140625,9.676874160766602,1.7356936931610107,0.39511483907699585
1716979903952457200,10.125457275390625,9.9140625,1.7859430313110352,0.5099703073501587
1716979903962170600,10.135170654296875,10.095916748046875,1.8625133037567139,0.6391827464103699
1716979903971884000,10.144884033203125,10.354341506958008,1.927119493484497,0.7588238716125488
1716979903981597400,10.154597412109375,10.538887977600098,1.9462621212005615,0.859621524810791
1716979903991310600,10.164310546875,10.617851257324219,1.9872392416000366,0.8258228898048401
1716979904001024000,10.17402392578125,10.713563919067383,1.934298038482666,0.732502818107605
1716979904010737400,10.1837373046875,10.871490478515625,1.8409779071807861,0.45254257321357727
1716979904020450600,10.193450439453125,11.12303638458252,1.6854444742202759,0.18424734473228455
1716979904030164000,10.2031640625,11.414960861206055,1.505982756614685,-0.07417750358581543
1716979904039877400,10.21287744140625,11.762218475341797,1.3070793151855469,-0.2799602448940277
1716979904049590500,10.222590576171875,12.08315658569336,1.0845468044281006,-0.40707895159721375
1716979904059304000,10.232303955078125,12.434901237487793,0.7707880139350891,-0.3568296730518341
1716979904069017300,10.242017333984375,12.580862998962402,0.6511468887329102,-0.3807578980922699
1716979904078730500,10.25173046875,12.55693531036377,0.734895646572113,-0.3329014480113983
1716979904088444000,10.26144384765625,12.451650619506836,0.7612167000770569,-0.007178467698395252
1716979904098157300,10.2711572265625,12.279367446899414,0.6511468887329102,0.37836506962776184
1716979904107870500,10.280870361328125,11.979965209960938,0.797109067440033,0.521934449672699
1716979904117584000,10.290583984375,11.65693473815918,1.2089736461639404,0.6008976101875305
1716979904127297300,10.30029736328125,11.402996063232422,1.4270195960998535,0.6942176818847656
1716979904137010400,10.310010498046875,11.259427070617676,1.2951152324676514,0.8330013751983643
1716979904146723800,10.319723876953125,11.161321640014648,1.194616675376892,0.7396813035011292
1716979904156437200,10.329437255859375,11.314461708068848,1.3214362859725952,0.40229329466819763
1716979904166150400,10.339150390625,11.573185920715332,1.256830096244812,0.1579262912273407
1716979904175863800,10.34886376953125,11.74307632446289,0.9026923179626465,0.01196411345154047
1716979904185577200,10.3585771484375,11.714362144470215,0.5721837282180786,-0.15314064919948578
1716979904195290400,10.368290283203125,11.45563793182373,0.3448655605316162,-0.24167509377002716
1716979904205003800,10.378003662109375,10.962717056274414,0.15074782073497772,-0.2994019389152527
1716979904214717200,10.38771728515625,10.397711753845215,-0.019142581149935722,-0.27756741642951965
1716979904224430300,10.397430419921875,9.798908233642578,-0.04307080805301666,-0.36640095710754395
1716979904234143700,10.407143798828125,9.308379173278809,0.05742774158716202,-0.5458626747131348
1716979904243857200,10.416857177734375,8.934800148010254,0.2105683982372284,-0.7636095285415649
1716979904253570300,10.4265703125,8.616254806518555,0.4046861231327057,-0.8955138921737671
1716979904263283700,10.43628369140625,8.451150894165039,0.6056832075119019,-0.7779664397239685
1716979904272997000,10.4459970703125,8.479864120483398,0.7444669604301453,-0.3735794425010681
1716979904282710300,10.455710205078125,8.42722225189209,0.890728235244751,0.004785645287483931
1716979904292423700,10.465423583984375,8.43440055847168,1.017547845840454,0.2994019389152527
1716979904302137000,10.47513720703125,8.465507507324219,1.043868899345398,0.5937191247940063
1716979904311850200,10.484850341796875,8.451150894165039,1.048654556274414,0.6894320249557495
1716979904321563600,10.494563720703125,8.384151458740234,1.043868899345398,0.6726822853088379
1716979904331277000,10.504277099609375,8.2788667678833,1.067797064781189,0.4621138870716095
1716979904340990200,10.513990234375,8.039285659790039,1.0893324613571167,0.24646073579788208
1716979904350703600,10.52370361328125,7.670791149139404,1.165902853012085,0.11246266216039658
1716979904360417000,10.5334169921875,7.278069019317627,1.2472587823867798,-0.03349951654672623
1716979904370130400,10.54313037109375,6.971488952636719,1.3070793151855469,-0.12921242415905
1716979904379843600,10.552843505859375,6.732206344604492,1.3932210206985474,-0.16510476171970367
1716979904389557000,10.562556884765625,6.598208427429199,1.5418751239776611,-0.2105683982372284
1716979904399270400,10.5722705078125,6.696314334869385,1.6878372430801392,-0.1866401731967926
1716979904408983600,10.581983642578125,6.897311210632324,1.8553348779678345,-0.12442677468061447
1716979904418697000,10.591697021484375,7.167999267578125,1.953440546989441,-0.09810572862625122
1716979904428410400,10.601410400390625,7.39053201675415,2.0135602951049805,-0.15314064919948578
1716979904438123500,10.61112353515625,7.491030216217041,2.032702922821045,-0.34247273206710815
1716979904447837000,10.6208369140625,7.469494819641113,2.0685951709747314,-0.5889334678649902
1716979904457550300,10.63055029296875,7.2349982261657715,1.9824535846710205,-0.6583253145217896
1716979904467263500,10.640263427734375,7.867002487182617,2.0159530639648438,-0.797109067440033
1716979904476977000,10.649976806640625,8.137690544128418,2.111665964126587,-0.675075113773346
1716979904486690300,10.659690185546875,8.554041862487793,2.0997018814086914,-0.40707895159721375
1716979904496403500,10.669403564453125,9.126225471496582,1.903191328048706,-0.11485548317432404
1716979904506116900,10.679116943359375,9.626625061035156,1.678265929222107,0.031106693670153618
1716979904515830300,10.688830322265625,10.486246109008789,1.5131611824035645,-0.009571290574967861
1716979904525543400,10.69854345703125,11.460424423217773,1.3214362859725952,0.04546362906694412
1716979904535256800,10.7082568359375,12.422937393188477,1.1754741668701172,0.23449662327766418
1716979904544970200,10.71797021484375,13.337593078613281,1.0151549577713013,0.3975076675415039
1716979904554683400,10.727683349609375,14.16820240020752,0.7612167000770569,0.5913262963294983
1716979904564396800,10.737396728515625,14.529817581176758,0.6248258352279663,0.6726822853088379
1716979904574110200,10.747110107421875,14.632708549499512,0.5458626747131348,0.5721837282180786
1716979904583823400,10.7568232421875,14.67099380493164,0.37836506962776184,0.4692923426628113
1716979904593536800,10.766536865234375,14.481961250305176,0.2225325107574463,0.4214358925819397
1716979904603250200,10.776250244140625,14.12991714477539,0.14356936514377594,0.2392822653055191
1716979904612963300,10.78596337890625,13.91934871673584,0.1986042857170105,0.02153540402650833
1716979904622676700,10.7956767578125,13.78774356842041,0.3161516785621643,0.035892341285943985
1716979904632390100,10.80539013671875,13.643875122070312,0.12442677468061447,0.36640095710754395
1716979904642103600,10.815103515625,13.526626586914062,-0.12921242415905,0.6918248534202576
1716979904651816700,10.824816650390625,13.538590431213379,-0.10289137065410614,0.7564310431480408
1716979904661530000,10.834530029296875,13.655838966369629,-0.1052841991186142,0.6918248534202576
1716979904671243500,10.844243408203125,13.619946479797363,-0.39032918214797974,0.6320042610168457
1716979904680956700,10.853956787109375,13.421341896057129,-0.7468597888946533,0.5554339289665222
1716979904690670000,10.863670166015625,13.074084281921387,-0.9433703422546387,0.37118661403656006
1716979904700383500,10.873383544921875,12.573684692382812,-1.012762188911438,0.28983065485954285
1716979904710096600,10.8830966796875,11.810074806213379,-1.0462616682052612,0.3520440459251404
1716979904719810000,10.89281005859375,10.993824005126953,-0.9074779748916626,0.4668995141983032
1716979904729523500,10.9025234375,10.265807151794434,-0.6343970894813538,0.6320042610168457
1716979904739236600,10.912236572265625,9.540482521057129,-0.3209373354911804,0.8330013751983643
1716979904748950000,10.921949951171875,8.8438720703125,-0.02392822690308094,0.9672985672950745
1716979904758663400,10.931663330078125,8.221439361572266,0.3329014480113983,1.0247262716293335
1716979904768376600,10.94137646484375,7.71386194229126,0.6415755748748779,0.9696913957595825
1716979904778090000,10.951090087890625,7.3283185958862305,0.890728235244751,0.9457631707191467
1716979904787803400,10.960803466796875,7.074679374694824,1.0821540355682373,0.8763712644577026
1716979904797516500,10.9705166015625,6.973881721496582,1.170688509941101,0.7851449251174927
1716979904807230000,10.98022998046875,7.019644260406494,1.2233306169509888,0.6822535395622253
1716979904816943400,10.989943359375,7.11775016784668,1.280758261680603,0.5697908997535706
1716979904826656800,10.99965673828125,7.191927433013916,1.3334003686904907,0.4980062246322632
1716979904836370000,11.009369873046875,7.2349982261657715,1.4413765668869019,0.48364928364753723
1716979904846083300,11.019083251953125,7.2661051750183105,1.561017632484436,0.40229329466819763
1716979904855796500,11.02879638671875,7.275676250457764,1.683051586151123,0.4381856322288513
1716979904865510000,11.038510009765625,7.172784805297852,1.776371717453003,0.5458626747131348
1716979904875223300,11.048223388671875,6.997809886932373,1.8744773864746094,0.5602195858955383
1716979904884936700,11.057936767578125,6.904489517211914,2.0039889812469482,0.48364928364753723
1716979904894649900,11.06764990234375,6.856633186340332,2.1068804264068604,0.4046861231327057
1716979904904363300,11.07736328125,6.885347366333008,2.0853450298309326,0.33050861954689026
1716979904914076700,11.08707666015625,7.012166976928711,2.035095691680908,0.23688943684101105
1716979904923789800,11.096789794921875,7.263712406158447,1.9438693523406982,0.18424734473228455
1716979904933503200,11.106503173828125,7.701898097991943,1.86729896068573,0.13639089465141296
1716979904943216600,11.116216552734375,8.2788667678833,1.807478427886963,0.064606212079525
1716979904952929800,11.1259296875,8.891729354858398,1.7476578950881958,0.05742774158716202
1716979904962643200,11.135643310546875,9.578767776489258,1.683051586151123,0.20099709928035736
1716979904972356600,11.145356689453125,10.172487258911133,1.6136597394943237,0.38315072655677795
1716979904982069800,11.15506982421875,10.68963623046875,1.5418751239776611,0.5410770177841187
1716979904991783200,11.164783203125,11.101500511169434,1.5131611824035645,0.7277171611785889
1716979905001496600,11.17449658203125,11.352746963500977,1.4557334184646606,0.8162516355514526
1716979905011210000,11.1842099609375,11.474781036376953,1.4533406496047974,0.7277171611785889
1716979905020923100,11.193923095703125,11.513364791870117,1.4653047323226929,0.5315057039260864
1716979905030636500,11.203636474609375,11.424531936645508,1.3668999671936035,0.26560330390930176
1716979905040350000,11.213349853515625,11.316854476928711,1.1826525926589966,-0.014356935396790504
1716979905050063000,11.22306298828125,11.283354759216309,1.1515458822250366,-0.25363919138908386
1716979905059776500,11.232776611328125,11.328819274902344,1.197009563446045,-0.28983065485954285
1716979905069490000,11.242489990234375,11.383853912353516,1.2831511497497559,-0.20817556977272034
1716979905079203000,11.252203125,11.424531936645508,1.3357932567596436,-0.009571290574967861
1716979905088916500,11.26191650390625,11.530115127563477,1.3621143102645874,0.37836506962776184
1716979905098630000,11.2716298828125,11.613863945007324,1.3692927360534668,0.8090731501579285
1716979905108343000,11.281343017578125,11.790932655334473,1.287936806678772,1.2711870670318604
1716979905118056400,11.291056396484375,12.018250465393066,1.2329018115997314,1.470090389251709
1716979905127769900,11.300769775390625,12.253046989440918,1.2305090427398682,1.4629119634628296
1716979905137483000,11.31048291015625,12.54975700378418,1.0701899528503418,1.4222339391708374
1716979905147196400,11.320196533203125,12.885050773620605,0.7516453862190247,1.3716856241226196
1716979905156909800,11.329909912109375,13.217952728271484,0.5075774788856506,1.134796142578125
1716979905166623200,11.339623291015625,13.521841049194336,0.41186460852622986,0.8715856671333313
1716979905176336400,11.34933642578125,13.80210018157959,0.24167509377002716,0.7037889361381531
1716979905186049800,11.3590498046875,13.63908863067627,-0.019142581149935722,0.612861692905426
1716979905195763200,11.36876318359375,12.954442977905273,-0.2679961323738098,0.5075774788856506
1716979905205476400,11.378476318359375,12.054142951965332,-0.3568296730518341,0.3329014480113983
1716979905215189800,11.388189697265625,11.111071586608887,-0.2273181527853012,0.10289137065410614
1716979905224903200,11.397903076171875,10.194023132324219,-0.05503492057323456,-0.05024927482008934
1716979905234616300,11.4076162109375,9.272486686706543,0.031106693670153618,-0.2512463629245758
1716979905244329700,11.417329833984375,8.53729248046875,0.12921242415905,-0.4405784606933594
1716979905254043100,11.427043212890625,8.077570915222168,0.2632105052471161,-0.5865406394004822
1716979905263756300,11.43675634765625,7.790432453155518,0.3975076675415039,-0.6774678826332092
1716979905273469700,11.4464697265625,7.620542049407959,0.4334000051021576,-0.6200401782989502
1716979905283183000,11.45618310546875,7.560422420501709,0.43579283356666565,-0.42382872104644775
1716979905292896300,11.465896240234375,7.5774712562561035,0.4668995141983032,-0.2392822653055191
1716979905302609700,11.475609619140625,7.519744396209717,0.5386841893196106,-0.21774685382843018
1716979905312323000,11.485322998046875,7.450352191925049,0.6176473498344421,-0.17946170270442963
1716979905322036200,11.4950361328125,7.414460182189941,0.646361231803894,-0.2512463629245758
1716979905331749600,11.50474951171875,7.371389389038086,0.701396107673645,-0.39990049600601196
1716979905341463000,11.514463134765625,7.385746002197266,0.8234301209449768,-0.4980062246322632
1716979905351176400,11.524176513671875,7.354639530181885,0.8859425783157349,-0.5386841893196106
1716979905360889600,11.5338896484375,7.33549690246582,0.9122636318206787,-0.5099703073501587
1716979905370603000,11.54360302734375,7.330711364746094,0.9146564602851868,-0.5003990530967712
1716979905380316400,11.55331640625,7.311568737030029,0.9529415965080261,-0.47647079825401306
1716979905390029600,11.563029541015625,7.412067413330078,0.9984052777290344,-0.5386841893196106
1716979905399743000,11.572742919921875,7.560422420501709,1.0031908750534058,-0.6583253145217896
1716979905409456400,11.582456298828125,7.800003528594971,0.981655478477478,-0.7468597888946533
1716979905419169500,11.59216943359375,8.077570915222168,0.9218349456787109,-0.8763712644577026
1716979905428883000,11.601883056640625,8.312366485595703,0.8811569213867188,-0.9337990283966064
1716979905438596400,11.611596435546875,8.606683731079102,0.9337990283966064,-0.9146564602851868
1716979905448309500,11.6213095703125,8.85344409942627,1.0199406147003174,-0.857228696346283
1716979905458023000,11.63102294921875,9.025727272033691,1.1276177167892456,-0.732502818107605
1716979905467736300,11.640736328125,9.150154113769531,1.170688509941101,-0.44297128915786743
1716979905477449700,11.65044970703125,9.337093353271484,1.194616675376892,-0.05742774158716202
1716979905487163000,11.660162841796875,9.602696418762207,1.2759727239608765,0.2799602448940277
1716979905496876300,11.669876220703125,9.947562217712402,1.3812568187713623,0.5434698462486267
1716979905506589700,11.679589599609375,10.347163200378418,1.3668999671936035,0.8476574420928955
1716979905516302800,11.689302734375,10.69681453704834,1.2831511497497559,1.1754741668701172
1716979905526016300,11.699016357421876,10.912168502807617,1.2089736461639404,1.572981834411621
1716979905535729700,11.708729736328126,11.029715538024902,1.074975609779358,2.1092731952667236
1716979905545442800,11.71844287109375,11.051251411437988,1.0701899528503418,2.6072793006896973
1716979905555156200,11.72815625,11.118250846862793,1.1994023323059082,2.95184588432312
1716979905564869600,11.73786962890625,11.125429153442383,1.2400803565979004,3.193819999694824
1716979905574582800,11.747582763671875,11.125429153442383,1.170688509941101,3.1890344619750977
1716979905584296200,11.757296142578125,11.060822486877441,1.1371889114379883,2.8226335048675537
1716979905594009600,11.767009521484376,11.063215255737305,1.2065808773040771,2.1954147815704346
1716979905603723000,11.776722900390626,11.175678253173828,1.1276177167892456,1.5466607809066772
1716979905613436200,11.786436279296876,11.20917797088623,0.9912267923355103,1.098903775215149
1716979905623149600,11.796149658203126,11.101500511169434,0.9433703422546387,0.7875377535820007
1716979905632863000,11.805863037109376,11.235498428344727,1.012762188911438,0.6655037999153137
1716979905642576100,11.815576171875,11.47956657409668,0.893121063709259,0.9050851464271545
1716979905652289500,11.82528955078125,11.61864948272705,0.6559324860572815,1.2759727239608765
1716979905662003000,11.8350029296875,11.661720275878906,0.490827739238739,1.3453645706176758
1716979905671716000,11.844716064453126,11.941680908203125,0.4142574071884155,1.012762188911438
1716979905681429500,11.854429443359376,12.763016700744629,-0.016749758273363113,1.0031908750534058
1716979905691143000,11.864142822265626,13.545768737792969,-0.7468597888946533,1.1204391717910767
1716979905700856000,11.87385595703125,14.218451499938965,-1.4940186738967896,1.311864972114563
1716979905710569500,11.883569580078126,14.515460014343262,-2.080559253692627,1.2664014101028442
1716979905720283000,11.893282958984376,14.434103965759277,-2.2408783435821533,1.017547845840454
1716979905729996300,11.902996337890626,14.02702522277832,-1.9558334350585938,0.6272186636924744
1716979905739709400,11.91270947265625,13.253844261169434,-1.4126626253128052,0.25363919138908386
1716979905749422800,11.9224228515625,12.253046989440918,-0.893121063709259,0.19381862878799438
1716979905759136300,11.93213623046875,11.125429153442383,-0.4214358925819397,0.4381856322288513
1716979905768849400,11.941849365234376,9.954740524291992,0.06699903309345245,0.7253243923187256
1716979905778562800,11.951562744140626,8.949156761169434,0.5386841893196106,1.0079765319824219
1716979905788276200,11.961276123046876,8.161619186401367,0.8763712644577026,1.1682956218719482
1716979905797989400,11.9709892578125,7.615756034851074,1.1204391717910767,1.165902853012085
1716979905807702800,11.980702880859376,7.275676250457764,1.225723385810852,1.0558329820632935
1716979905817416200,11.990416259765626,7.175177574157715,1.194616675376892,0.8644071817398071
1716979905827129300,12.00012939453125,7.189534664154053,1.1467602252960205,0.6678966283798218
1716979905836842800,12.0098427734375,7.153642177581787,1.1300104856491089,0.4501497745513916
1716979905846556200,12.01955615234375,7.026822566986084,1.1754741668701172,0.30179476737976074
1716979905856269600,12.02926953125,6.909275531768799,1.225723385810852,0.1579262912273407
1716979905865982700,12.038982666015626,6.832705020904541,1.3070793151855469,0.02392822690308094
1716979905875696000,12.048696044921876,6.792026996612549,1.3980066776275635,-0.08374879509210587
1716979905885409500,12.058409423828126,6.832705020904541,1.4246268272399902,-0.16749759018421173
1716979905895122700,12.068122802734376,6.961917400360107,1.3860424757003784,-0.10767702013254166
1716979905904836000,12.077836181640626,7.127321243286133,1.3357932567596436,-0.02632104977965355
1716979905914549500,12.087549560546876,7.313961505889893,1.280758261680603,-0.01196411345154047
1716979905924263000,12.097262939453126,7.555636405944824,1.2233306169509888,-0.08135596662759781
1716979905933976000,12.10697607421875,7.919644832611084,1.1922239065170288,-0.1866401731967926
1716979905943689500,12.116689453125,8.3267240524292,1.1874382495880127,-0.3161516785621643
1716979905953403000,12.12640283203125,8.819944381713867,1.2113664150238037,-0.3807578980922699
1716979905963116000,12.136115966796876,9.253045082092285,1.2113664150238037,-0.33050861954689026
1716979905972829400,12.145829345703126,9.696016311645508,1.2041879892349243,-0.1339980661869049
1716979905982542800,12.15554296875,10.028918266296387,1.2233306169509888,0.07896314561367035
1716979905992256000,12.165256103515626,10.424033164978027,1.2951152324676514,0.37118661403656006
1716979906001969400,12.174969482421876,10.780563354492188,1.3836497068405151,0.5769693851470947
1716979906011682800,12.184682861328126,11.044073104858398,1.4198411703109741,0.6559324860572815
1716979906021396000,12.19439599609375,11.158928871154785,1.4270195960998535,0.5027918815612793
1716979906031109400,12.204109375,11.166107177734375,1.450947880744934,0.1986042857170105
1716979906040822800,12.21382275390625,11.111071586608887,1.4174482822418213,-0.07178468257188797
1716979906050536200,12.2235361328125,11.144571304321289,1.3142578601837158,-0.275174617767334
1716979906060249300,12.233249267578126,11.381461143493652,1.3046865463256836,-0.4668995141983032
1716979906069962800,12.242962646484376,11.606685638427734,1.3549357652664185,-0.5745765566825867
1716979906079676200,12.25267626953125,11.920145034790039,1.3405789136886597,-0.5482555031776428
1716979906089389300,12.262389404296876,12.241082191467285,1.2759727239608765,-0.41186460852622986
1716979906099102700,12.272102783203126,12.410972595214844,1.2711870670318604,-0.21774685382843018
1716979906108816100,12.281816162109376,12.489935874938965,1.1467602252960205,0.12203395366668701
1716979906118529300,12.291529296875,12.480364799499512,0.9074779748916626,0.7037889361381531
1716979906128242700,12.30124267578125,12.332009315490723,0.766002357006073,1.220937728881836
1716979906137956000,12.3109560546875,12.336795806884766,0.7707880139350891,1.5035899877548218
1716979906147669200,12.320669189453126,12.544970512390137,0.6631109714508057,1.7380865812301636
1716979906157382700,12.330382568359376,13.10519027709961,0.30179476737976074,1.800299882888794
1716979906167096000,12.340095947265626,13.761422157287598,-0.1698904037475586,1.470090389251709
1716979906176809500,12.3498095703125,14.402997970581055,-0.5027918815612793,0.797109067440033
1716979906186522600,12.359522705078126,14.81695556640625,-0.9481559991836548,0.24167509377002716
1716979906196236000,12.369236083984376,14.651851654052734,-1.4485549926757812,-0.33529427647590637
1716979906205949400,12.378949462890626,14.15145206451416,-1.7428722381591797,-0.7995018362998962
1716979906215662600,12.38866259765625,13.36152172088623,-1.7069798707962036,-1.2113664150238037
1716979906225376000,12.3983759765625,12.370294570922852,-1.4964114427566528,-1.477268934249878
1716979906235089400,12.40808935546875,11.335997581481934,-1.1730812788009644,-1.6663018465042114
1716979906244802800,12.417802734375,10.351948738098145,-0.7636095285415649,-1.6256239414215088
1716979906254516000,12.427515869140626,9.459127426147461,-0.30179476737976074,-1.4940186738967896
1716979906264229400,12.4372294921875,8.65932559967041,0.09571290761232376,-1.1826525926589966
1716979906273942500,12.446942626953126,7.919644832611084,0.4046861231327057,-0.8811569213867188
1716979906283656000,12.456656005859376,7.318747043609619,0.6942176818847656,-0.5865406394004822
