time,seconds_elapsed,z,y,x
1718030736952090000,0.150090087890625,8.400602340698242,4.231706619262695,-1.0707881450653076
1718030736961941000,0.15994091796875,8.654241561889648,4.480560302734375,-1.022931694984436
1718030736971947000,0.169947021484375,8.8648099899292,4.4997029304504395,-0.9128618240356445
1718030736981871900,0.179871826171875,9.003593444824219,4.418346881866455,-0.8554341197013855
1718030736991831300,0.189831298828125,9.138189315795898,4.2795634269714355,-0.8793623447418213
1718030737001731300,0.1997314453125,9.300901412963867,4.149752616882324,-0.7645068168640137
1718030737011666000,0.209666015625,9.34875774383545,4.179064750671387,-0.7166503667831421
1718030737021625600,0.21962548828125,9.229117393493652,4.020540237426758,-0.6496513485908508
1718030737031570700,0.22957080078125,9.133403778076172,4.077968120574951,-0.6975077986717224
1718030737041483800,0.23948388671875,9.056235313415527,4.144967079162598,-0.6592226624488831
1718030737051415600,0.24941552734375,8.955737113952637,4.25084924697876,-0.534795880317688
1718030737061595600,0.259595703125,8.783453941345215,4.2987060546875,-0.4773681163787842
1718030737071775500,0.269775390625,8.793025016784668,4.154538154602051,-0.3194418251514435
1718030737081655600,0.279655517578125,8.697312355041504,3.723830223083496,0.030508488416671753
1718030737091535600,0.28953564453125,8.84088134765625,4.308277130126953,0.04007977992296219
1718030737101415700,0.299415771484375,8.974879264831543,4.456632137298584,-0.1944168359041214
1718030737111295500,0.30929541015625,8.984451293945312,4.490131855010986,-0.6161518096923828
1718030737121175600,0.319175537109375,9.19561767578125,4.475774765014648,-0.9655039310455322
1718030737131055600,0.3290556640625,9.482755661010742,4.475774765014648,-0.9702895879745483
1718030737141235500,0.3392353515625,9.29611587524414,3.9248273372650146,-1.0947163105010986
1718030737151415600,0.34941552734375,8.970093727111816,3.6568312644958496,-0.9990034699440002
1718030737161595600,0.359595703125,9.200403213500977,3.6472599506378174,-0.8171489238739014
1718030737171791400,0.369791259765625,9.324830055236816,3.9152560234069824,-0.6496513485908508
1718030737181607700,0.379607666015625,9.31047248840332,4.077968120574951,-0.6783652305603027
1718030737191512800,0.389512939453125,9.114261627197266,4.17427921295166,-1.3250255584716797
1718030737201690600,0.399690673828125,9.396614074707031,4.327419757843018,-1.2526426315307617
1718030737211708200,0.409708251953125,9.214759826660156,4.480560302734375,-1.3537393808364868
1718030737221627100,0.419627197265625,8.486743927001953,4.442275047302246,-1.2813565731048584
1718030737231604200,0.429604248046875,7.739584922790527,4.380061626434326,-0.7501499056816101
1718030737241561600,0.4395615234375,7.361518859863281,4.609772682189941,-0.08434699475765228
1718030737251530800,0.44953076171875,7.5050883293151855,4.8059844970703125,0.47557350993156433
1718030737261496000,0.45949609375,7.959724426269531,4.557130813598633,0.542572557926178
1718030737271463700,0.469463623046875,8.271389961242676,4.101896286010742,0.15493527054786682
1718030737281279000,0.479279052734375,8.24267578125,3.5132617950439453,-1.1186445951461792
1718030737291184400,0.489184326171875,8.831310272216797,3.47019100189209,-1.602592945098877
1718030737301364500,0.499364501953125,10.383055686950684,3.824328899383545,-0.9750752449035645
1718030737311433700,0.509433837890625,8.678169250488281,4.762913703918457,-1.3824533224105835
1718030737321337300,0.51933740234375,8.649456024169922,4.724628448486328,-1.2717852592468262
1718030737331317800,0.52931787109375,8.764310836791992,4.25084924697876,-0.7884350419044495
1718030737341272000,0.53927197265625,8.783453941345215,4.049253940582275,-0.5682953596115112
1718030737351241700,0.54924169921875,8.649456024169922,4.4374895095825195,-0.5874379873275757
1718030737361206300,0.559206298828125,8.391031265258789,4.9639105796813965,-0.778863787651062
1718030737371174100,0.569174072265625,8.357531547546387,4.906482696533203,-0.9224331378936768
1718030737380985900,0.57898583984375,8.35274600982666,4.509274482727051,-0.9846464991569519
1718030737390938000,0.588938232421875,8.486743927001953,4.5714874267578125,-0.7262216806411743
1718030737400920000,0.598920166015625,8.697312355041504,4.978267669677734,-0.7884350419044495
1718030737410875100,0.608875244140625,8.922237396240234,4.901697158813477,-1.2191431522369385
1718030737420854300,0.618854248046875,8.960522651672363,4.705485820770264,-1.7940187454223633
1718030737430811600,0.628811767578125,8.587242126464844,4.686343193054199,-2.162513494491577
1718030737440943000,0.638943115234375,8.261817932128906,4.8777689933776855,-2.152942180633545
1718030737450918400,0.64891845703125,7.849654674530029,3.666402578353882,-1.2957134246826172
1718030737460877600,0.658877685546875,7.864011764526367,4.825126647949219,-1.2430713176727295
1718030737470851000,0.66885107421875,8.13260555267334,5.462215900421143,-1.4638092517852783
1718030737480811800,0.678811767578125,8.721240043640137,4.729413986206055,-1.290927767753601
1718030737490784300,0.6887841796875,8.754739761352539,4.044468402862549,-1.290927767753601
1718030737500591400,0.69859130859375,8.888737678527832,4.432703971862793,-1.4685949087142944
1718030737510547200,0.708547119140625,8.888737678527832,4.3657050132751465,-1.5643078088760376
1718030737520525600,0.718525634765625,8.836095809936523,4.336990833282471,-1.5978072881698608
1718030737530483700,0.728483642578125,9.138189315795898,4.106681823730469,-1.6169499158859253
1718030737540614700,0.73861474609375,9.262616157531738,3.824328899383545,-1.5355939865112305
1718030737550590200,0.748590087890625,9.20997428894043,3.5371899604797363,-1.4207384586334229
1718030737560548900,0.758548828125,9.06580638885498,3.5084762573242188,-1.3010972738265991
1718030737570522600,0.768522705078125,9.008378982543945,3.613760471343994,-1.2861422300338745
1718030737580328400,0.778328369140625,8.903095245361328,3.5467612743377686,-1.3824533224105835
1718030737590285600,0.78828564453125,8.314460754394531,3.3888349533081055,-1.3680963516235352
1718030737600262700,0.7982626953125,8.13260555267334,3.1591241359710693,-1.430309772491455
1718030737610221800,0.808221923828125,8.166105270385742,3.833899974822998,-1.7748762369155884
1718030737620351500,0.8183515625,8.481958389282227,4.31306266784668,-2.191227436065674
1718030737630328000,0.828328125,8.936594009399414,4.456632137298584,-2.7086751461029053
1718030737640286000,0.838285888671875,9.487542152404785,4.801198482513428,-3.1824541091918945
1718030737650260500,0.848260498046875,9.879964828491211,4.911268711090088,-3.3888349533081055
1718030737660220400,0.858220458984375,10.076175689697266,4.8538408279418945,-3.43190598487854
1718030737670193400,0.868193359375,10.134202003479004,4.748556613922119,-3.321237802505493
1718030737679999700,0.877999755859375,9.961320877075195,4.782055854797363,-3.115455150604248
1718030737689956400,0.887956298828125,9.578469276428223,4.77248477935791,-2.6943182945251465
1718030737699934000,0.897933837890625,9.142974853515625,4.700700283050537,-2.2582263946533203
1718030737709892600,0.907892578125,8.84088134765625,4.466203689575195,-1.8993029594421387
1718030737720023000,0.91802294921875,8.386244773864746,4.403990268707275,-1.6313068866729736
1718030737729999000,0.9279990234375,8.01236629486084,4.3896331787109375,-1.6121642589569092
1718030737739918600,0.937918701171875,7.7252278327941895,4.542773723602295,-1.4973087310791016
1718030737749889000,0.947888916015625,7.844869136810303,4.633700847625732,-1.3250255584716797
1718030737759891700,0.9578916015625,7.768298625946045,4.686343193054199,-1.3298112154006958
1718030737769865200,0.967865234375,7.572087287902832,4.590630054473877,-1.2335001230239868
1718030737779671300,0.97767138671875,7.347161769866943,4.705485820770264,-1.0995019674301147
1718030737789628200,0.987628173828125,7.117451190948486,4.662415027618408,-0.9367900490760803
1718030737799760100,0.997760009765625,7.069594383239746,4.782055854797363,-0.8027920126914978
1718030737809734700,1.007734619140625,6.781857490539551,4.624129772186279,-0.5778666734695435
1718030737819694600,1.017694580078125,6.743572235107422,4.609772682189941,-0.4534398913383484
1718030737829667600,1.02766748046875,6.643074035644531,4.624129772186279,-0.2955136001110077
1718030737839628800,1.03762890625,6.724429607391357,4.762913703918457,-0.23270200192928314
1718030737849600800,1.047600830078125,6.824928283691406,4.887340068817139,-0.28115665912628174
1718030737859563300,1.057563232421875,6.934998035430908,4.97348165512085,-0.47258245944976807
1718030737869534200,1.0675341796875,7.055237770080566,5.102694511413574,-0.6305087804794312
1718030737879342800,1.0773427734375,7.165307521820068,5.20379114151001,-0.7597211599349976
1718030737889297400,1.08729736328125,7.284948348999023,5.174479007720947,-0.7405785918235779
1718030737899431700,1.097431640625,7.304090976715088,5.32821798324585,-0.7597211599349976
1718030737909404700,1.10740478515625,7.375875949859619,5.433502197265625,-0.5587241053581238
1718030737919366000,1.117365966796875,7.304090976715088,5.610570907592773,-0.4630111753940582
1718030737929337900,1.127337890625,7.380661487579346,5.821139335632324,-0.2955136001110077
1718030737939300400,1.13730029296875,7.624729156494141,5.67756986618042,-0.12263216078281403
1718030737949271300,1.147271240234375,7.792226791381836,5.543571949005127,0.07836493849754333
1718030737959234600,1.157234619140625,8.02193832397461,5.5483574867248535,0.15493527054786682
1718030737969204700,1.167204833984375,8.280961036682129,5.5005011558532715,0.2841476798057556
1718030737979014100,1.17701416015625,8.443673133850098,5.562714576721191,0.31764721870422363
1718030737988968200,1.18696826171875,8.582456588745117,5.514857769012451,0.5282155871391296
1718030737998948400,1.1969482421875,8.735597610473633,5.701498031616211,0.6622136831283569
1718030738008905000,1.206905029296875,8.927022933959961,5.80199670791626,0.8781659007072449
1718030738019037400,1.217037353515625,9.315258979797363,5.983851432800293,0.9978070259094238
1718030738029011700,1.22701171875,9.889535903930664,6.089135646820068,0.8733802437782288
1718030738038971600,1.2369716796875,10.430912017822266,5.9647088050842285,0.5234299302101135
1718030738048944600,1.246944580078125,11.005189895629883,5.620141983032227,-0.05563312768936157
1718030738058905900,1.25690576171875,11.49392318725586,5.337789058685303,-0.6017948985099792
1718030738068877800,1.2668779296875,12.001201629638672,5.030909538269043,-0.9559326171875
1718030738078840300,1.27684033203125,12.494721412658691,4.767699241638184,-1.1617153882980347
1718030738088811300,1.286811279296875,12.958929061889648,4.4374895095825195,-1.0995019674301147
1718030738098774800,1.29677490234375,13.304094314575195,4.034897327423096,-0.8602197170257568
1718030738108744700,1.30674462890625,13.337593078613281,3.9152560234069824,-0.6831508874893188
1718030738118709000,1.316708984375,13.145569801330566,3.5754752159118652,-0.7692924737930298
1718030738128678700,1.3266787109375,13.174283027648926,3.723830223083496,-0.17527425289154053
1718030738138643200,1.336643310546875,13.342378616333008,3.800400495529175,-0.1178465187549591
1718030738148612400,1.3466123046875,13.596017837524414,3.786043643951416,-0.46779683232307434
1718030738158577700,1.35657763671875,13.892727851867676,3.4845480918884277,-0.9320043921470642
1718030738168546300,1.36654638671875,13.820943832397461,3.202194929122925,-1.1665010452270508
1718030738178357200,1.376357177734375,13.586446762084961,3.0340991020202637,-1.2957134246826172
1718030738188310000,1.38631005859375,12.949357986450195,2.9383862018585205,-1.3106685876846313
1718030738198291200,1.396291259765625,12.106486320495605,2.9623143672943115,-1.1282159090042114
1718030738208247000,1.4062470703125,10.995617866516113,3.0867412090301514,-0.8219345808029175
1718030738218380300,1.41638037109375,9.899106979370117,3.2309088706970215,-0.7645068168640137
1718030738228354000,1.42635400390625,8.984451293945312,3.494119167327881,-0.6592226624488831
1718030738238314500,1.436314453125,8.328817367553711,3.6472599506378174,-0.7549355626106262
1718030738248287000,1.446286865234375,7.6869425773620605,3.6807594299316406,-0.6592226624488831
1718030738258249000,1.4562490234375,7.098308563232422,3.7190446853637695,-0.5970092415809631
1718030738268220400,1.466220458984375,6.600003242492676,3.786043643951416,-0.5874379873275757
1718030738278028500,1.476028564453125,6.355935096740723,3.8147575855255127,-0.39122650027275085
1718030738287983600,1.485983642578125,6.116652965545654,3.8530426025390625,-0.3577269911766052
1718030738297962800,1.495962646484375,6.107081413269043,3.809971809387207,-0.4486542344093323
1718030738307920100,1.505920166015625,5.958128452301025,3.762115478515625,-0.5826523303985596
1718030738318051600,1.516051513671875,6.28415060043335,3.628117322921753,-0.7262216806411743
1718030738328027000,1.52602685546875,6.475576400756836,3.446262836456299,-0.7357929348945618
1718030738337986000,1.535986083984375,6.6382880210876465,3.3170504570007324,-0.7884350419044495
1718030738347959600,1.54595947265625,6.729215621948242,3.2069804668426514,-0.865005373954773
1718030738357920500,1.55592041015625,6.6382880210876465,3.178266763687134,-0.8937192559242249
1718030738367892700,1.565892822265625,6.499504566192627,2.991028308868408,-0.8219345808029175
1718030738377700000,1.5757001953125,6.207580089569092,2.9862427711486816,-0.6592226624488831
1718030738387655700,1.58565576171875,5.97308349609375,3.105883836746216,-0.4773681163787842
1718030738397789000,1.595788818359375,5.656632900238037,3.2691938877105713,-0.18963119387626648
1718030738407762700,1.6057626953125,5.402993679046631,3.259622573852539,0.030508488416671753
1718030738417723400,1.615723388671875,5.163711071014404,3.441477060317993,0.12143574655056
1718030738427695900,1.62569580078125,5.111069202423096,3.34576416015625,0.1501496136188507
1718030738437657600,1.63565771484375,5.173282623291016,3.494119167327881,0.2267199456691742
1718030738447629000,1.645629150390625,5.3694939613342285,3.6807594299316406,0.12622138857841492
1718030738457592000,1.655592041015625,5.508277893066406,3.747758388519287,-0.03170489892363548
1718030738467562500,1.6655625,5.694917678833008,3.7429728507995605,0.001794616924598813
1718030738477526300,1.6755263671875,6.092724800109863,3.738187074661255,0.03529413416981697
1718030738487496200,1.68549609375,6.274579048156738,3.8913278579711914,-0.04127619042992592
1718030738497460700,1.695460693359375,6.489933013916016,3.9870407581329346,-0.4103690981864929
1718030738507430100,1.70543017578125,6.82014274597168,4.030111312866211,-0.8602197170257568
1718030738517395000,1.71539501953125,7.270591735839844,4.332205295562744,-1.2478569746017456
1718030738527363800,1.72536376953125,7.806583881378174,4.514060020446777,-1.607378602027893
1718030738537329400,1.735329345703125,8.4771728515625,4.561916351318359,-2.138585329055786
1718030738547297800,1.7452978515625,9.090332984924316,4.643272399902344,-2.6560330390930176
1718030738557263600,1.755263671875,9.875179290771484,4.604987144470215,-3.0388846397399902
1718030738567232000,1.76523193359375,10.397412300109863,4.528416633605957,-3.081955671310425
1718030738577043200,1.775043212890625,10.63669490814209,4.466203689575195,-2.7900311946868896
1718030738586996000,1.784995849609375,10.584053039550781,4.71027135848999,-2.531606435775757
1718030738597132000,1.795132080078125,10.258628845214844,4.662415027618408,-2.138585329055786
1718030738607103200,1.805103271484375,9.966106414794922,4.849055290222168,-2.105085611343384
1718030738617066500,1.81506640625,9.765109062194824,4.954339504241943,-2.1960129737854004
1718030738627037000,1.825036865234375,9.817750930786133,5.026124000549316,-2.4119651317596436
1718030738637000700,1.835000732421875,10.047462463378906,4.906482696533203,-2.6799614429473877
1718030738646970600,1.844970703125,10.63669490814209,4.815555572509766,-2.7900311946868896
1718030738656935200,1.85493505859375,11.350354194641113,4.77248477935791,-2.8043880462646484
1718030738666904300,1.864904296875,11.919845581054688,5.016552448272705,-2.967100143432617
1718030738676869600,1.87486962890625,12.437294006347656,4.863411903381348,-3.0963125228881836
1718030738686838300,1.88483837890625,12.64307689666748,4.715056896209717,-3.153740167617798
1718030738696649200,1.894649169921875,12.638291358947754,4.5475592613220215,-3.2781670093536377
1718030738706602200,1.904602294921875,12.499506950378418,4.609772682189941,-3.527618885040283
1718030738716738000,1.914738037109375,12.389437675476074,4.949553489685059,-3.580260992050171
1718030738726709500,1.92470947265625,12.20219898223877,4.95912504196167,-3.786043643951416
1718030738736672300,1.93467236328125,12.245867729187012,4.748556613922119,-4.2933220863342285
1718030738746643000,1.944642822265625,12.317652702331543,4.64805793762207,-4.566701889038086
1718030738756606700,1.954606689453125,12.389437675476074,4.246063709259033,-4.724628448486328
1718030738766576600,1.96457666015625,12.427722930908203,3.8051862716674805,-4.64805793762207
1718030738776386300,1.97438623046875,12.442079544067383,3.4031920433044434,-4.154538154602051
1718030738786340400,1.98434033203125,12.360723495483398,3.0628130435943604,-3.518047571182251
1718030738796320500,1.994320556640625,12.341581344604492,2.7804598808288574,-2.8426733016967773
1718030738806277000,2.004277099609375,11.895917892456055,2.416750907897949,-2.1577277183532715
1718030738816409300,2.014409423828125,11.225927352905273,1.913659930229187,-1.6265212297439575
1718030738826384000,2.0243837890625,10.49791145324707,1.6408780813217163,-1.2765709161758423
1718030738836343800,2.03434375,9.588040351867676,1.3824533224105835,-1.042074203491211
1718030738846316800,2.04431689453125,8.759525299072266,1.4638092517852783,-0.8506484627723694
1718030738856278300,2.0542783203125,8.209176063537598,1.4590235948562622,-0.9032905697822571
1718030738866250000,2.06425,7.715656757354736,1.6313068866729736,-1.0755738019943237
1718030738876057900,2.074057861328125,7.58644437789917,1.7030915021896362,-1.3680963516235352
1718030738886013200,2.08401318359375,7.52423095703125,1.6265212297439575,-1.7653049230575562
1718030738895992000,2.093991943359375,7.529016494750977,1.7413766384124756,-2.138585329055786
1718030738905949700,2.10394970703125,7.237092018127441,1.7030915021896362,-2.421536445617676
1718030738916081200,2.1140810546875,7.107879638671875,1.6121642589569092,-2.589034080505371
1718030738926056400,2.124056396484375,6.714858531951904,1.4446666240692139,-2.550748825073242
1718030738936015400,2.134015380859375,6.442076683044434,1.4590235948562622,-2.455035924911499
1718030738945989000,2.143989013671875,6.107081413269043,1.4973087310791016,-2.138585329055786
1718030738955949800,2.15394970703125,5.675775527954102,1.5643078088760376,-1.8945173025131226
1718030738965922300,2.16392236328125,5.1876397132873535,1.6265212297439575,-1.4925230741500854
1718030738975884300,2.17388427734375,4.545764923095703,1.7509479522705078,-1.1808580160140991
1718030738985855500,2.18385546875,3.8321053981781006,1.7940187454223633,-0.711864709854126
1718030738995664000,2.193663818359375,3.0759735107421875,2.115255117416382,-0.2667997181415558
1718030739005619000,2.203618896484375,2.472383975982666,2.7565317153930664,0.22193430364131927
1718030739015752700,2.213752685546875,2.338385820388794,3.518047571182251,0.6622136831283569
1718030739025726000,2.223725830078125,2.4532413482666016,4.217350006103516,0.6095715761184692
1718030739035687200,2.233687255859375,2.970689296722412,4.403990268707275,-0.022133609279990196
1718030739045659100,2.2436591796875,4.129413604736328,4.246063709259033,-1.0516455173492432
1718030739055505400,2.25350537109375,5.19242525100708,4.576273441314697,-1.01814603805542
1718030739065464800,2.26346484375,6.643074035644531,4.8059844970703125,-1.4398809671401978
1718030739075401000,2.27340087890625,7.969295978546143,5.0117669105529785,-1.9519450664520264
1718030739085358000,2.283358154296875,9.229117393493652,5.193621635437012,-2.2295124530792236
1718030739095335200,2.293335205078125,10.037891387939453,5.730212211608887,-2.066800594329834
1718030739105294300,2.30329443359375,10.493125915527344,6.041278839111328,-1.7653049230575562
1718030739115424300,2.31342431640625,10.895119667053223,6.309873104095459,-1.5020943880081177
1718030739125400600,2.323400634765625,11.527422904968262,6.5874409675598145,-1.4015958309173584
1718030739135358700,2.333358642578125,12.135200500488281,6.664011001586914,-1.2765709161758423
1718030739145333200,2.343333251953125,12.413365364074707,6.64486837387085,-1.0085747241973877
1718030739155293200,2.353293212890625,12.365509033203125,6.673582553863525,-0.7357929348945618
1718030739165266200,2.36326611328125,11.69013500213623,6.716653347015381,-0.5300102233886719
1718030739175227400,2.373227294921875,10.517053604125977,6.754938125610352,-0.26201409101486206
1718030739185199400,2.383199462890625,9.410971641540527,6.821937561035156,-0.10827522724866867
1718030739195161900,2.393161865234375,8.45324420928955,7.0995049476623535,-0.04127619042992592
1718030739205132800,2.4031328125,7.763513088226318,7.267002582550049,-0.13698910176753998
1718030739215096300,2.413096435546875,7.280162811279297,7.320242881774902,-0.10348957777023315
1718030739225066500,2.42306640625,7.179664134979248,7.315456867218018,-0.2715853750705719
1718030739235030500,2.433030517578125,7.514659404754639,7.301100254058838,-0.41994038224220276
1718030739245000200,2.443000244140625,8.271389961242676,7.214360237121582,-0.5778666734695435
1718030739254965000,2.452965087890625,9.281759262084961,7.2335028648376465,-0.5635097622871399
1718030739264934100,2.46293408203125,9.970891952514648,7.2335028648376465,-0.381655216217041
1718030739274899200,2.472899169921875,10.359127044677734,7.037291526794434,-0.13220344483852386
1718030739284867800,2.482867919921875,10.502696990966797,6.989434719085693,0.25064817070961
1718030739294833700,2.492833740234375,10.378270149230957,6.975078105926514,0.3128615617752075
1718030739304802000,2.502802001953125,10.205986976623535,6.970292568206787,0.12622138857841492
1718030739314768100,2.51276806640625,9.966106414794922,6.865008354187012,-0.2715853750705719
1718030739324736300,2.522736328125,9.760323524475098,6.735795974731445,-0.6448656916618347
1718030739334702300,2.532702392578125,9.726823806762695,6.52044153213501,-1.195214867591858
1718030739344670200,2.542670166015625,10.037891387939453,6.15134859085083,-1.5547364950180054
1718030739354636800,2.55263671875,10.689336776733398,5.734997749328613,-2.042872428894043
1718030739364604400,2.5626044921875,11.513066291809082,5.155336380004883,-2.2438695430755615
1718030739374571000,2.572571044921875,12.327223777770996,4.657629489898682,-2.1481566429138184
1718030739384538600,2.58253857421875,12.820145606994629,4.222135543823242,-1.7653049230575562
1718030739394505500,2.59250537109375,13.164711952209473,3.7334015369415283,-1.26699960231781
1718030739404473000,2.60247314453125,12.896716117858887,3.2787652015686035,-0.6496513485908508
1718030739414439700,2.612439697265625,12.130414009094238,2.967100143432617,-0.07956135272979736
1718030739424407300,2.6224072265625,11.038688659667969,2.833101987838745,0.3128615617752075
1718030739434374100,2.6323740234375,9.980463027954102,2.8139593601226807,0.06400800496339798
1718030739444341500,2.642341552734375,9.176474571228027,3.0963125228881836,-0.4773681163787842
1718030739454308400,2.652308349609375,8.639883995056152,3.283550977706909,-1.1425727605819702
1718030739464275700,2.662275634765625,8.34317398071289,3.494119167327881,-1.827518343925476
1718030739474242800,2.672242919921875,8.060821533203125,3.7429728507995605,-2.5363919734954834
1718030739484210200,2.682210205078125,7.7491559982299805,3.857828378677368,-2.9144580364227295
1718030739494177000,2.692177001953125,7.557730197906494,3.9535412788391113,-3.014956474304199
1718030739504144400,2.702144287109375,7.112665176391602,3.9391841888427734,-2.9144580364227295
1718030739514111500,2.712111572265625,6.595217227935791,3.7429728507995605,-2.493321180343628
1718030739524078800,2.722078857421875,6.059225082397461,3.6807594299316406,-2.263011932373047
1718030739534045700,2.732045654296875,5.513063430786133,3.7429728507995605,-1.7796618938446045
1718030739544013000,2.742012939453125,5.091926574707031,3.637688636779785,-1.6360924243927002
1718030739553980200,2.751980224609375,4.9190449714660645,3.7286159992218018,-1.4350954294204712
1718030739563947500,2.761947509765625,4.789832592010498,3.652045488357544,-1.358525037765503
1718030739573914600,2.77191455078125,4.871188640594482,3.7190446853637695,-1.171286702156067
1718030739583881700,2.7818818359375,4.948357105255127,3.6951162815093994,-1.1330015659332275
1718030739593848800,2.791848876953125,5.2115678787231445,3.5467612743377686,-1.1186445951461792
1718030739603816200,2.801816162109375,5.446064472198486,3.5850465297698975,-1.0755738019943237
1718030739613783300,2.811783203125,5.436492919921875,3.527618885040283,-0.9798609018325806
1718030739623750400,2.82175048828125,5.589633464813232,3.6185460090637207,-1.1282159090042114
1718030739633717500,2.831717529296875,5.651846885681152,3.628117322921753,-1.26699960231781
1718030739643684900,2.841684814453125,5.8097734451293945,3.6329028606414795,-1.4207384586334229
1718030739653574400,2.851574462890625,5.8097734451293945,3.8673996925354004,-1.693520188331604
1718030739663533800,2.861533935546875,5.934200286865234,4.121038913726807,-1.8801604509353638
1718030739673586200,2.871586181640625,6.030511379241943,4.154538154602051,-2.1720848083496094
1718030739683555000,2.88155517578125,5.977869033813477,4.269991874694824,-2.455035924911499
1718030739693520600,2.891520751953125,6.140581130981445,4.427918434143066,-2.723032236099243
1718030739703489000,2.901489013671875,6.413362979888916,4.600201606750488,-3.0245277881622314
1718030739713416200,2.911416259765625,6.485147476196289,4.858626365661621,-3.422334671020508
1718030739723380500,2.92138037109375,6.427719593048096,5.198407173156738,-3.666402578353882
1718030739733311700,2.931311767578125,6.403791427612305,5.486144065856934,-3.90568470954895
1718030739743272700,2.941272705078125,6.293721675872803,5.557928562164307,-4.389034748077393
1718030739753207600,2.95120751953125,6.55693244934082,5.959922790527344,-4.365106582641602
1718030739763165700,2.961165771484375,6.767500877380371,6.362515449523926,-4.58584451675415
1718030739773180400,2.971180419921875,7.012166976928711,6.467799663543701,-4.882554531097412
1718030739783144400,2.98114453125,7.313662528991699,6.482156753540039,-5.117051124572754
1718030739793076000,2.991075927734375,7.959724426269531,6.8554368019104,-5.1218366622924805
1718030739803036700,3.00103662109375,8.419744491577148,6.984649181365967,-5.2941203117370605
1718030739813048800,3.011048828125,8.869595527648926,6.845865726470947,-5.313262462615967
1718030739823015000,3.021014892578125,9.276973724365234,6.530013084411621,-5.467001438140869
1718030739832983300,3.0309833984375,9.836894035339355,6.39601469039917,-5.385047435760498
1718030739842949400,3.040949462890625,10.100104331970215,6.21356201171875,-5.136193752288818
1718030739852917800,3.050917724609375,10.306485176086426,5.9886369705200195,-4.872983455657959
1718030739862884000,3.060884033203125,10.344770431518555,5.749354839324951,-4.470989227294922
1718030739872813300,3.070813232421875,10.875977516174316,5.6823554039001465,-3.9487555027008057
1718030739882776000,3.080776123046875,11.60399341583252,5.462215900421143,-3.762115478515625
1718030739892670200,3.090670166015625,12.461221694946289,5.285147190093994,-3.848257064819336
1718030739902626300,3.100626220703125,13.380663871765137,4.83469820022583,-3.996612071990967
1718030739912527400,3.11052734375,14.065011024475098,4.17427921295166,-3.896113395690918
1718030739922477600,3.1204775390625,14.458032608032227,3.4989049434661865,-3.2590243816375732
1718030739932423000,3.1304228515625,14.251651763916016,2.9527430534362793,-2.2677977085113525
1718030739942372600,3.14037255859375,13.61037540435791,2.517249345779419,-1.0803594589233398
1718030739952279800,3.15027978515625,12.489935874938965,2.4406790733337402,-0.046061836183071136
1718030739962225400,3.160225341796875,11.25464153289795,2.3784656524658203,0.7627122402191162
1718030739972175400,3.17017529296875,10.066604614257812,2.234896421432495,1.1413763761520386
1718030739982121200,3.180121337890625,9.06580638885498,2.210968017578125,1.1318050622940063
1718030739992032300,3.1900322265625,8.362317085266113,2.234896421432495,0.8111668825149536
1718030740001974800,3.199974853515625,7.983652591705322,2.1296122074127197,0.4420739710330963
1718030740011889400,3.209889404296875,7.916653633117676,2.1056840419769287,-0.1944168359041214
1718030740021828900,3.219828857421875,7.99800968170166,2.0961127281188965,-0.6687939167022705
1718030740031784700,3.22978466796875,7.959724426269531,2.052443504333496,-1.01814603805542
1718030740041726000,3.239725830078125,7.6630144119262695,2.004587173461914,-1.3872389793395996
1718030740051641600,3.2496416015625,7.514659404754639,2.0380866527557373,-1.5738791227340698
1718030740061580300,3.259580322265625,7.366304397583008,1.9519450664520264,-1.7700905799865723
1718030740071498800,3.269498779296875,7.083951473236084,1.913659930229187,-1.7413766384124756
1718030740081435400,3.279435302734375,6.82014274597168,1.82273268699646,-1.4925230741500854
1718030740091355600,3.289355712890625,6.5904316902160645,1.7461622953414917,-1.3154542446136475
1718030740101290800,3.299290771484375,6.288936138153076,1.8035900592803955,-0.8697910308837891
1718030740111212500,3.309212646484375,5.924628734588623,1.7796618938446045,-0.5587241053581238
1718030740121146000,3.31914599609375,5.388636589050293,2.018944025039673,-0.19920247793197632
1718030740131107600,3.329107666015625,5.010570526123047,2.2636101245880127,0.07357929646968842
1718030740141044200,3.339044189453125,4.703691005706787,2.541177749633789,0.2841476798057556
1718030740151041300,3.349041259765625,4.540979385375977,2.9240293502807617,0.45164528489112854
1718030740160983800,3.35898388671875,4.593621253967285,3.1208388805389404,0.5617151260375977
1718030740171164000,3.369163818359375,4.775475978851318,3.384049415588379,0.6957131624221802
1718030740181343700,3.37934375,4.871188640594482,3.6472599506378174,0.6239284873008728
1718030740191523800,3.38952392578125,5.19242525100708,4.169493675231934,0.600000262260437
1718030740201703700,3.39970361328125,5.474778175354004,4.609772682189941,0.4995017349720001
1718030740211774500,3.4097744140625,5.79063081741333,5.179264545440674,0.3128615617752075
1718030740221753600,3.419753662109375,6.154938220977783,5.715855121612549,0.006580262444913387
1718030740231709000,3.429708984375,6.489933013916016,6.060421466827393,-0.1704886108636856
1718030740241685800,3.439685791015625,6.987640380859375,6.501298904418945,-0.534795880317688
1718030740251643400,3.449643310546875,7.572087287902832,7.16650390625,-0.8315058946609497
1718030740261618200,3.4596181640625,8.261817932128906,7.707880020141602,-1.1473584175109863
1718030740271577900,3.469577880859375,9.109476089477539,8.0955171585083,-1.2957134246826172
1718030740281551000,3.479551025390625,9.717252731323242,8.239086151123047,-1.2143574953079224
1718030740291512300,3.48951220703125,10.349555969238281,8.315656661987305,-1.0660024881362915
1718030740301484300,3.499484375,10.871191024780273,8.105088233947754,-0.6592226624488831
1718030740311485400,3.5094853515625,11.153544425964355,7.7940216064453125,-0.4534398913383484
1718030740321460500,3.51946044921875,11.249855995178223,7.616952896118164,-0.20398813486099243
1718030740331420000,3.529419921875,11.129616737365723,7.506882667541504,0.10229317098855972
1718030740341393200,3.53939306640625,11.283354759216309,7.4015984535217285,0.1740778535604477
1718030740351354400,3.549354248046875,11.489137649536133,7.339385032653809,0.29371899366378784
1718030740361326600,3.55932666015625,12.044272422790527,7.22871732711792,0.23629122972488403
1718030740371288600,3.56928857421875,12.566506385803223,7.018148899078369,0.4899304509162903
1718030740381259800,3.579259765625,12.7818603515625,6.955935478210449,0.8255237936973572
1718030740391223000,3.58922314453125,12.714860916137695,6.759724140167236,1.1653046607971191
1718030740401193500,3.599193359375,12.375080108642578,6.501298904418945,1.404586911201477
1718030740411157500,3.609157470703125,11.737991333007812,6.367300987243652,1.3423734903335571
1718030740421127200,3.619127197265625,11.12483024597168,6.15134859085083,1.2993026971817017
1718030740431092000,3.629092041015625,10.397412300109863,5.845067501068115,1.0552347898483276
1718030740441061000,3.63906103515625,10.109675407409668,5.380859851837158,0.6143572330474854
1718030740451026200,3.649026123046875,10.220343589782715,4.8059844970703125,0.26500511169433594
1718030740460995000,3.6589951171875,10.62233829498291,4.077968120574951,-0.06041877344250679
1718030740470960600,3.668960693359375,11.158329963684082,3.580260992050171,-0.19920247793197632
1718030740480929300,3.67892919921875,11.699706077575684,3.273979663848877,0.05922235921025276
1718030740490895000,3.68889501953125,11.785847663879395,3.077169895172119,0.24586252868175507
1718030740500863200,3.69886328125,11.398210525512695,2.785245656967163,0.4420739710330963
1718030740510829300,3.708829345703125,10.603195190429688,2.6799614429473877,0.6813562512397766
1718030740520797400,3.71879736328125,9.722038269042969,2.794816732406616,0.719641387462616
1718030740530763800,3.728763671875,8.769096374511719,2.8761727809906006,0.5856433510780334
1718030740540731600,3.738731689453125,7.983652591705322,2.9383862018585205,-0.03170489892363548
1718030740550698800,3.74869873046875,7.47637414932251,2.957528829574585,-0.6065805554389954
1718030740560666000,3.758666015625,7.251449108123779,3.0388846397399902,-0.9463613629341125
1718030740570632400,3.768632568359375,6.997211456298828,2.9958138465881348,-1.2047861814498901
1718030740580600300,3.778600341796875,6.992425918579102,3.0484559535980225,-1.3250255584716797
1718030740590567000,3.78856689453125,6.982854843139648,2.9479575157165527,-1.3824533224105835
1718030740600534500,3.798534423828125,6.915855407714844,3.0101709365844727,-1.2574282884597778
1718030740610501400,3.80850146484375,6.887141704559326,2.8905298709869385,-1.2813565731048584
1718030740620469000,3.818468994140625,6.777071952819824,2.8666014671325684,-1.2478569746017456
1718030740630281000,3.828281005859375,6.738786697387695,2.9001009464263916,-1.2526426315307617
1718030740640233000,3.83823291015625,6.518647193908691,2.8187451362609863,-0.9990034699440002
1718030740650369800,3.848369873046875,6.303293228149414,2.8139593601226807,-0.8841479420661926
1718030740660340500,3.858340576171875,6.178866386413574,2.895315408706665,-0.9367900490760803
1718030740670304300,3.86830419921875,5.987440586090088,2.933600664138794,-0.9032905697822571
1718030740680274400,3.8782744140625,6.011368751525879,2.981456995010376,-0.8841479420661926
1718030740690238700,3.88823876953125,5.958128452301025,3.1106693744659424,-0.9750752449035645
1718030740700208000,3.8982080078125,5.905486106872559,3.3026933670043945,-0.9176474809646606
1718030740710173200,3.908173095703125,5.623133182525635,3.47019100189209,-0.9607182741165161
1718030740720142000,3.91814208984375,5.718846321105957,3.685544967651367,-0.9080761671066284
1718030740730107400,3.928107421875,5.828916072845459,3.920041799545288,-0.9702895879745483
1718030740740076000,3.938075927734375,6.001797199249268,4.11625337600708,-1.1569297313690186
1718030740750041900,3.948041748046875,6.3224358558654785,4.332205295562744,-1.3968101739883423
1718030740760010200,3.95801025390625,6.762714862823486,4.528416633605957,-1.827518343925476
1718030740769976300,3.967976318359375,7.241877555847168,4.77248477935791,-2.114656925201416
1718030740779944400,3.9779443359375,7.596015453338623,4.9639105796813965,-2.455035924911499
1718030740789910500,3.98791064453125,7.701299667358398,5.054837703704834,-2.6225335597991943
1718030740799878700,3.997878662109375,7.777870178222656,5.227719306945801,-2.699103832244873
1718030740809845000,4.007844970703125,7.701299667358398,5.318646430969238,-2.7182464599609375
1718030740819812900,4.017812744140625,7.485945701599121,5.605785369873047,-2.7278177738189697
1718030740829624600,4.02762451171875,7.548159122467041,5.734997749328613,-2.847458839416504
1718030740839576800,4.037576904296875,7.677371501922607,5.873781204223633,-2.943171739578247
1718030740849713400,4.04771337890625,8.046463966369629,5.888138294219971,-3.201596736907959
1718030740859684400,4.057684326171875,8.4771728515625,5.854638576507568,-3.326023578643799
1718030740869648100,4.067648193359375,8.893523216247559,5.754140377044678,-3.503690481185913
1718030740879618000,4.0776181640625,9.315258979797363,5.514857769012451,-3.4893336296081543
1718030740889582300,4.087582275390625,9.784252166748047,5.404788017272949,-3.527618885040283
1718030740899552000,4.097552001953125,10.124032974243164,5.352146148681641,-3.43190598487854
1718030740909516800,4.107516845703125,10.13898754119873,5.050052165985107,-3.4654054641723633
1718030740919486000,4.11748583984375,10.134202003479004,4.657629489898682,-3.34995174407959
1718030740929451000,4.127450927734375,10.28734302520752,4.418346881866455,-3.22552490234375
1718030740939420000,4.137419921875,10.416555404663086,4.284348964691162,-3.029313564300537
1718030740949385700,4.1473857421875,10.416555404663086,3.972683906555176,-2.9144580364227295
1718030740959354000,4.15735400390625,10.421340942382812,3.5946178436279297,-2.785245656967163
1718030740969320000,4.16731982421875,10.555338859558105,3.1351959705352783,-2.799602508544922
1718030740979288000,4.1772880859375,11.100902557373047,2.871387243270874,-2.895315408706665
1718030740989254400,4.18725439453125,11.575279235839844,2.5986053943634033,-3.129812002182007
1718030740999222300,4.19722216796875,12.0394868850708,2.2540390491485596,-3.1585259437561035
1718030741009188900,4.20718896484375,12.360723495483398,1.9615163803100586,-3.177668571472168
1718030741019156500,4.217156494140625,12.700504302978516,1.6839489936828613,-2.833101987838745
1718030741029123000,4.227123046875,12.700504302978516,1.6360924243927002,-2.344966173171997
1718030741039091000,4.237091064453125,12.53300666809082,1.5882359743118286,-1.6983058452606201
1718030741049057500,4.2470576171875,12.279367446899414,1.5690934658050537,-1.3154542446136475
1718030741059025200,4.257025146484375,11.92463207244873,1.3824533224105835,-1.046859860420227
1718030741068992000,4.266991943359375,11.374282836914062,1.181456208229065,-0.9750752449035645
1718030741078959400,4.27695947265625,10.631909370422363,0.9080761671066284,-1.0755738019943237
1718030741088926200,4.28692626953125,9.875179290771484,0.836291491985321,-1.3680963516235352
1718030741098893600,4.2968935546875,9.243474006652832,0.8937192559242249,-1.755733609199524
1718030741108860700,4.306860595703125,8.907880783081055,1.1096714735031128,-2.2438695430755615
1718030741118828000,4.316828125,8.510671615600586,1.334596872329712,-2.723032236099243
1718030741128640300,4.32664013671875,8.161319732666016,1.4685949087142944,-3.0723843574523926
1718030741138592300,4.33659228515625,7.978867053985596,1.6313068866729736,-3.2446675300598145
1718030741148729000,4.34672900390625,8.051250457763672,1.82273268699646,-3.311666488647461
1718030741158699800,4.35669970703125,8.01236629486084,1.9184455871582031,-3.326023578643799
1718030741168663600,4.36666357421875,8.02193832397461,2.0333011150360107,-3.1585259437561035
1718030741178633500,4.376633544921875,7.892725467681885,1.9854445457458496,-2.7661030292510986
1718030741188598000,4.386597900390625,7.409375190734863,2.0961127281188965,-2.296511650085449
1718030741198567400,4.3965673828125,6.8967132568359375,2.1918256282806396,-1.9663020372390747
1718030741208532500,4.406532470703125,6.351149559020996,2.2923240661621094,-1.6648063659667969
1718030741218501400,4.41650146484375,5.766702651977539,2.5603201389312744,-1.516451358795166
1718030741228312000,4.42631201171875,5.3216376304626465,2.794816732406616,-1.2765709161758423
1718030741238265300,4.436265380859375,4.6989054679870605,3.0245277881622314,-1.0325030088424683
1718030741248401000,4.44640087890625,4.3447675704956055,3.2452657222747803,-0.6496513485908508
1718030741258372600,4.45637255859375,4.205984115600586,3.527618885040283,-0.41994038224220276
1718030741268335400,4.46633544921875,4.311268329620361,3.8386857509613037,-0.1178465187549591
1718030741278306300,4.476306396484375,4.61276388168335,4.231706619262695,0.03529413416981697
1718030741288269800,4.486269775390625,5.163711071014404,4.504488468170166,0.10707881301641464
1718030741298240000,4.496239990234375,5.905486106872559,4.662415027618408,-0.0029910283628851175
1718030741308165600,4.50616552734375,6.69571590423584,4.983053207397461,-0.2183450609445572
1718030741318131200,4.516131103515625,7.41416072845459,5.208576679229736,-0.5443671345710754
1718030741327983900,4.52598388671875,7.916653633117676,5.495715618133545,-0.7692924737930298
1718030741337938200,4.535938232421875,8.405387878417969,5.610570907592773,-1.1569297313690186
1718030741348072700,4.54607275390625,8.721240043640137,6.036493301391602,-1.5308083295822144
1718030741358045400,4.55604541015625,9.070592880249023,6.348158359527588,-1.8323038816452026
1718030741368007200,4.566007080078125,9.324830055236816,6.597012042999268,-1.9806588888168335
1718030741377979000,4.575978759765625,9.454042434692383,6.745367050170898,-1.9902302026748657
1718030741387941600,4.585941650390625,9.631111145019531,6.798008918762207,-1.607378602027893
1718030741397912300,4.595912353515625,9.985248565673828,6.783652305603027,-0.9798609018325806
1718030741407876000,4.6058759765625,10.435697555541992,6.424728870391846,-0.4342973232269287
1718030741417846000,4.615845947265625,10.540982246398926,6.0987067222595215,-0.10348957777023315
1718030741427655700,4.62565576171875,10.751550674438477,6.017350673675537,0.3415754437446594
1718030741437609700,4.635609619140625,11.081759452819824,6.0987067222595215,0.7435696125030518
1718030741447744800,4.645744873046875,11.666206359863281,6.52044153213501,1.031306505203247
1718030741457717000,4.655717041015625,11.996416091918945,6.678368091583252,0.9882357716560364
1718030741467679200,4.66567919921875,12.111271858215332,6.597012042999268,0.7100701332092285
1718030741477650400,4.675650390625,12.111271858215332,6.597012042999268,0.14057832956314087
1718030741487613700,4.68561376953125,11.862418174743652,6.515655994415283,-0.625723123550415
1718030741497583900,4.695583984375,11.905488967895508,6.227919101715088,-1.0277173519134521
1718030741507548000,4.7055478515625,12.0394868850708,5.744568824768066,-1.1425727605819702
1718030741517517800,4.715517822265625,12.44686508178711,4.719842433929443,-0.8841479420661926
1718030741527327700,4.72532763671875,13.256237030029297,3.8195431232452393,-0.3577269911766052
1718030741537281500,4.735281494140625,14.261222839355469,3.0867412090301514,0.18843477964401245
1718030741547416600,4.74541650390625,15.195021629333496,2.4502503871917725,0.8446664214134216
1718030741557388800,4.755388916015625,15.836896896362305,1.731805443763733,1.2945170402526855
1718030741567351000,4.76535107421875,15.865610122680664,1.1910275220870972,1.710868239402771
1718030741577322200,4.775322265625,15.391831398010254,0.9942178130149841,1.8789639472961426
1718030741587285500,4.785285400390625,14.266008377075195,1.0809576511383057,1.8741782903671265
1718030741597256000,4.795255859375,12.954143524169922,1.3154542446136475,1.581655740737915
1718030741607220000,4.805219970703125,11.503495216369629,1.5882359743118286,1.2897313833236694
1718030741617189600,4.815189697265625,10.205986976623535,1.5643078088760376,0.5186443328857422
1718030741626999600,4.82499951171875,9.190832138061523,1.7365909814834595,-0.4342973232269287
1718030741636953300,4.834953369140625,8.443673133850098,1.999801516532898,-1.3154542446136475
1718030741647088400,4.84508837890625,8.031509399414062,2.368894338607788,-2.004587173461914
1718030741657060600,4.855060546875,7.624729156494141,2.6608188152313232,-2.469393014907837
1718030741667022800,4.86502294921875,7.280162811279297,2.6368906497955322,-2.641676187515259
1718030741676994000,4.874994140625,6.9684977531433105,2.6943182945251465,-2.531606435775757
1718030741686957300,4.884957275390625,6.604788780212402,2.7565317153930664,-2.1337995529174805
1718030741696927700,4.894927734375,6.154938220977783,2.713460922241211,-1.7653049230575562
1718030741706891800,4.904891845703125,5.661418437957764,2.5459632873535156,-1.3968101739883423
1718030741716861400,4.914861328125,5.230710506439209,2.5746772289276123,-1.042074203491211
1718030741726671400,4.92467138671875,4.8089752197265625,2.6273193359375,-0.7645068168640137
1718030741736625200,4.934625244140625,4.473979949951172,2.612962245941162,-0.6448656916618347
1718030741746760400,4.944760498046875,4.196412563323975,2.7326035499572754,-0.7070791125297546
1718030741756732700,4.954732666015625,4.019343852996826,2.9527430534362793,-0.7645068168640137
1718030741766695000,4.96469482421875,3.8949170112609863,3.0340991020202637,-0.8602197170257568
1718030741776665900,4.974665771484375,3.899702787399292,3.2883365154266357,-0.9367900490760803
1718030741786629400,4.98462939453125,4.048057556152344,3.527618885040283,-1.046859860420227
1718030741796599600,4.994599609375,4.129413604736328,3.652045488357544,-1.1521440744400024
1718030741806563600,5.0045634765625,4.469194412231445,3.786043643951416,-1.425524115562439
1718030741816533200,5.014533203125,4.741976261138916,4.05403995513916,-1.6791633367538452
1718030741826343400,5.024343505859375,5.13021183013916,4.144967079162598,-2.0572292804718018
1718030741836297000,5.034296875,5.522634506225586,4.336990833282471,-2.5076780319213867
1718030741846432300,5.044432373046875,6.011368751525879,4.432703971862793,-2.967100143432617
1718030741856404500,5.054404541015625,6.566503524780273,4.566701889038086,-3.28773832321167
1718030741866366700,5.06436669921875,6.891927242279053,4.671986103057861,-3.5754752159118652
1718030741876338000,5.074337890625,7.261020183563232,4.724628448486328,-3.7716867923736572
1718030741886301200,5.08430126953125,7.548159122467041,4.89691162109375,-4.336392879486084
1718030741896271600,5.094271728515625,8.017151832580566,4.858626365661621,-4.949553489685059
1718030741906235600,5.104235595703125,8.529814720153809,4.743771076202393,-5.442475318908691
1718030741916205300,5.114205322265625,9.09990406036377,4.561916351318359,-5.792425632476807
1718030741926015200,5.12401513671875,9.822537422180176,4.633700847625732,-5.935994625091553
1718030741935969000,5.133968994140625,10.335199356079102,4.3752760887146,-5.80199670791626
1718030741946104300,5.144104248046875,10.89990520477295,4.332205295562744,-5.442475318908691
1718030741956076300,5.154076171875,10.871191024780273,4.260420799255371,-5.02133846282959
1718030741966038500,5.16403857421875,10.383055686950684,4.058825492858887,-4.5236310958862305
1718030741976009700,5.174009765625,9.927821159362793,3.833899974822998,-4.264608383178711
1718030741985973000,5.183972900390625,9.535398483276367,3.7812578678131104,-4.154538154602051
1718030741995943400,5.193943359375,9.142974853515625,3.5946178436279297,-3.90568470954895
1718030742005907500,5.203907470703125,9.07537841796875,3.479762315750122,-3.982254981994629
1718030742015877000,5.213877197265625,9.22433090209961,3.139981508255005,-3.9774694442749023
1718030742025687300,5.223687255859375,9.760323524475098,2.837887763977051,-3.910470485687256
1718030742035640800,5.233640869140625,10.799407005310059,2.579462766647339,-3.685544967651367
1718030742045776100,5.243776123046875,12.298510551452637,2.3401806354522705,-3.40797758102417
1718030742055748400,5.253748291015625,13.62473201751709,2.0715861320495605,-3.1441688537597656
1718030742065710600,5.263710693359375,14.67817211151123,1.583450436592102,-2.6847469806671143
1718030742075681800,5.273681884765625,15.31466293334961,1.2819547653198242,-1.9423737525939941
1718030742085645000,5.28364501953125,15.324234008789062,1.2149556875228882,-0.865005373954773
1718030742095615200,5.293615234375,14.936596870422363,1.2675977945327759,-0.046061836183071136
1718030742105579500,5.30357958984375,14.041083335876465,1.5499508380889893,0.6095715761184692
1718030742115549200,5.313549072265625,13.021142959594727,1.6360924243927002,0.6957131624221802
1718030742125359000,5.323359130859375,11.862418174743652,1.674377679824829,0.37028929591178894
1718030742135313000,5.33331298828125,10.818549156188965,1.669592022895813,-0.3529413342475891
1718030742145448000,5.343447998046875,10.104889869689941,1.755733609199524,-1.1282159090042114
1718030742155420200,5.353420166015625,9.554540634155273,1.9184455871582031,-1.7509479522705078
1718030742165382700,5.363382568359375,8.960522651672363,2.0620148181915283,-2.3204398155212402
1718030742175353600,5.373353515625,8.419744491577148,2.187039852142334,-2.6560330390930176
1718030742185316900,5.38331689453125,8.031509399414062,2.306680917739868,-2.7086751461029053
1718030742195287300,5.393287353515625,7.5433735847473145,2.431107759475708,-2.5938198566436768
1718030742205251300,5.403251220703125,7.0408806800842285,2.5124638080596924,-2.215155601501465
1718030742215221000,5.413220947265625,6.566503524780273,2.555534601211548,-1.827518343925476
1718030742225185800,5.423185791015625,6.09751033782959,2.675175666809082,-1.4973087310791016
1718030742235155000,5.433155029296875,5.522634506225586,2.699103832244873,-1.26699960231781
1718030742245120300,5.443120361328125,5.048855781555176,2.7421748638153076,-1.0612168312072754
1718030742255089000,5.4530888671875,4.904688358306885,2.919243574142456,-0.865005373954773
1718030742265015800,5.463015869140625,4.564907550811768,3.0723843574523926,-0.7310073375701904
1718030742274980600,5.472980712890625,4.387838363647461,3.259622573852539,-0.5395814776420593
1718030742284989000,5.482989013671875,4.229912281036377,3.3122646808624268,-0.4247260093688965
1718030742294958000,5.4929580078125,4.062414646148682,3.4606196880340576,-0.21355941891670227
1718030742304951000,5.502950927734375,4.081557273864746,3.786043643951416,-0.18005990982055664
1718030742314922500,5.512922607421875,4.339982032775879,3.982254981994629,-0.06041877344250679
1718030742324857900,5.52285791015625,5.015356063842773,4.217350006103516,-0.050847481936216354
1718030742334825500,5.532825439453125,5.493920803070068,4.3657050132751465,-0.33379876613616943
1718030742344792000,5.5427919921875,5.891129493713379,4.4135613441467285,-0.4055834412574768
1718030742354760000,5.552760009765625,6.169294834136963,4.638486862182617,-0.5300102233886719
1718030742364726500,5.5627265625,6.298507213592529,4.892126083374023,-0.5970092415809631
1718030742374694100,5.572694091796875,6.671787738800049,5.256433010101318,-0.6544370055198669
1718030742384661000,5.582660888671875,7.136593341827393,5.505286693572998,-0.7836494445800781
1718030742394628400,5.59262841796875,7.557730197906494,5.773283004760742,-0.9511470198631287
1718030742404595500,5.602595458984375,8.123034477233887,6.002993583679199,-1.1569297313690186
1718030742414562800,5.612562744140625,8.659027099609375,6.276373863220215,-1.3250255584716797
1718030742424529700,5.62252978515625,9.109476089477539,6.592226505279541,-1.4398809671401978
1718030742434497000,5.6324970703125,9.578469276428223,6.845865726470947,-1.5738791227340698
1718030742444464000,5.642464111328125,9.803394317626953,7.10429048538208,-1.5690934658050537
1718030742454431500,5.652431396484375,10.01874828338623,7.027719974517822,-1.5355939865112305
1718030742464398600,5.662398681640625,10.349555969238281,7.008577346801758,-1.3968101739883423
1718030742474366000,5.672365966796875,10.856834411621094,6.951149940490723,-1.109073281288147
1718030742484332800,5.682332763671875,11.819347381591797,6.865008354187012,-0.8506484627723694
1718030742494300200,5.692300048828125,12.686147689819336,6.912864685058594,-0.5826523303985596
1718030742504267300,5.702267333984375,13.481163024902344,7.018148899078369,-0.23748764395713806
1718030742514234600,5.712234619140625,13.720444679260254,6.903293132781982,-0.046061836183071136
1718030742524201700,5.72220166015625,13.447663307189941,6.64486837387085,0.08315058797597885
1718030742534168800,5.7321689453125,13.140783309936523,6.429514408111572,-0.07956135272979736
1718030742544136000,5.742135986328125,12.537792205810547,6.31944465637207,-0.41994038224220276
1718030742554103300,5.752103271484375,12.116057395935059,6.036493301391602,-0.6400800347328186
1718030742564070400,5.7620703125,12.375080108642578,5.529214859008789,-0.8458628058433533
1718030742574037800,5.772037841796875,13.140783309936523,4.762913703918457,-1.0037890672683716
1718030742584004900,5.7820048828125,14.333605766296387,4.159922122955322,-1.01814603805542
1718030742593972000,5.791971923828125,15.228521347045898,3.565903902053833,-0.778863787651062
1718030742603939300,5.801939208984375,15.717255592346191,3.105883836746216,-0.30987054109573364
1718030742613906400,5.811906494140625,15.812968254089355,2.641676187515259,0.054436713457107544
1718030742623873500,5.82187353515625,15.195021629333496,2.148754835128784,0.39900317788124084
1718030742633841000,5.8318408203125,13.926227569580078,2.100898265838623,0.4707878530025482
1718030742643808000,5.84180810546875,12.499506950378418,2.2157537937164307,0.5138586759567261
1718030742653775400,5.851775390625,10.938190460205078,2.5698914527893066,0.23629122972488403
1718030742663742500,5.861742431640625,9.707681655883789,2.737389087677002,-0.04127619042992592
1718030742673709600,5.87170947265625,8.57767105102539,2.794816732406616,-0.46779683232307434
1718030742683676700,5.8816767578125,7.672585964202881,2.8043880462646484,-0.8315058946609497
1718030742693644000,5.89164404296875,6.982854843139648,2.981456995010376,-1.109073281288147
1718030742703572500,5.901572509765625,6.533003807067871,3.0388846397399902,-1.4015958309173584
1718030742713535700,5.91153564453125,6.198009014129639,3.1208388805389404,-1.6791633367538452
1718030742723545600,5.921545654296875,5.997011661529541,3.283550977706909,-1.8897316455841064
1718030742733513500,5.931513427734375,5.997011661529541,3.178266763687134,-1.9423737525939941
1718030742743479800,5.941479736328125,5.948556900024414,3.091526746749878,-1.9710876941680908
1718030742753447700,5.95144775390625,5.886343479156494,2.9527430534362793,-1.8801604509353638
1718030742763337000,5.9613369140625,5.8337016105651855,2.9479575157165527,-1.7030915021896362
1718030742773297000,5.971296875,5.608776092529297,2.909672260284424,-1.6169499158859253
1718030742783271200,5.981271240234375,5.441278457641602,2.9766714572906494,-1.4925230741500854
1718030742793232600,5.991232666015625,5.2115678787231445,3.0723843574523926,-1.5068800449371338
1718030742803128000,6.001128173828125,5.039284706115723,3.2452657222747803,-1.4781662225723267
1718030742813083000,6.011082763671875,4.8233323097229,3.321835994720459,-1.5451651811599731
1718030742823139800,6.021139892578125,4.7371907234191895,3.494119167327881,-1.4877375364303589
1718030742833105000,6.03110498046875,4.6271209716796875,3.7286159992218018,-1.4973087310791016
1718030742842996700,6.040996826171875,4.473979949951172,3.96789813041687,-1.4685949087142944
1718030742852954600,6.05095458984375,4.454837322235107,4.231706619262695,-1.44945228099823
1718030742863008300,6.06100830078125,4.34955358505249,4.470989227294922,-1.5308083295822144
1718030742872976000,6.070975830078125,4.335196495056152,4.581058979034424,-1.688734531402588
1718030742882942700,6.080942626953125,4.540979385375977,4.849055290222168,-2.0476579666137695
1718030742892910000,6.09091015625,4.794618606567383,4.954339504241943,-2.383251428604126
1718030742902838500,6.100838623046875,5.225924491882324,5.0979084968566895,-2.8905298709869385
1718030742912801800,6.1108017578125,5.685346603393555,5.078765869140625,-3.263810157775879
1718030742922734000,6.120734130859375,6.403791427612305,5.36650276184082,-3.5084762573242188
1718030742932694500,6.130694580078125,7.001997470855713,5.5722856521606445,-3.9152560234069824
1718030742942591200,6.14059130859375,7.170093059539795,5.400002479553223,-4.044468402862549
1718030742952545000,6.150544921875,7.203592777252197,5.289932727813721,-4.063611030578613
1718030742962448100,6.1604482421875,6.982854843139648,5.280361175537109,-3.90568470954895
1718030742972397000,6.17039697265625,6.705287456512451,5.49092960357666,-3.723830223083496
1718030742982343700,6.18034375,6.55693244934082,5.758925914764404,-3.652045488357544
1718030742992292400,6.190292236328125,6.705287456512451,5.825924873352051,-3.675973892211914
1718030743002200800,6.200200927734375,6.834499835968018,5.931209087371826,-3.6807594299316406
1718030743012145400,6.2101455078125,7.280162811279297,6.046064376831055,-3.666402578353882
1718030743022096100,6.22009619140625,7.806583881378174,6.218348026275635,-3.8530426025390625
1718030743032041500,6.23004150390625,8.137392044067383,6.38165807723999,-3.9535412788391113
1718030743041953300,6.239953369140625,8.35274600982666,6.165705680847168,-4.121038913726807
1718030743051895000,6.24989501953125,8.333602905273438,5.892923831939697,-3.8769710063934326
1718030743061810200,6.25981005859375,8.391031265258789,5.5962138175964355,-3.518047571182251
1718030743071749400,6.269749267578125,8.510671615600586,5.222933769226074,-3.326023578643799
1718030743081705700,6.279705810546875,9.176474571228027,4.743771076202393,-3.1968109607696533
1718030743091646500,6.289646484375,10.24905776977539,4.284348964691162,-3.34995174407959
1718030743101562600,6.299562744140625,11.80020523071289,3.920041799545288,-3.666402578353882
1718030743111501000,6.3095009765625,13.025928497314453,3.3026933670043945,-3.9391841888427734
1718030743121419800,6.319419677734375,14.203795433044434,2.785245656967163,-3.738187074661255
1718030743131356200,6.329356201171875,14.922240257263184,2.407179594039917,-3.2590243816375732
1718030743141276700,6.339276611328125,15.16152286529541,2.306680917739868,-2.215155601501465
1718030743151211500,6.34921142578125,14.917454719543457,2.431107759475708,-1.1042876243591309
1718030743161133600,6.359133544921875,14.434103965759277,2.383251428604126,-0.1178465187549591
1718030743171067100,6.369067138671875,13.529019355773926,2.210968017578125,0.7387840151786804
1718030743181067000,6.37906689453125,12.504292488098145,1.7653049230575562,1.0408778190612793
1718030743191007200,6.38900732421875,11.187642097473145,1.4398809671401978,1.0600204467773438
1718030743201187300,6.399187255859375,10.104889869689941,1.3728820085525513,0.719641387462616
1718030743211367200,6.4093671875,9.286544799804688,1.3154542446136475,0.3798605799674988
1718030743221547300,6.41954736328125,8.539385795593262,1.4398809671401978,-0.11306086927652359
1718030743231727400,6.429727294921875,8.017151832580566,1.5260226726531982,-0.4630111753940582
1718030743241800200,6.43980029296875,7.878368377685547,1.6313068866729736,-0.7405785918235779
1718030743251777300,6.44977734375,7.883154392242432,1.7461622953414917,-0.9128618240356445
1718030743261734700,6.459734619140625,7.840083599090576,1.9615163803100586,-1.0660024881362915
1718030743271710000,6.4697099609375,7.777870178222656,2.0333011150360107,-1.0372886657714844
1718030743281669000,6.479669189453125,7.576872825622559,2.0715861320495605,-0.9655039310455322
1718030743291642600,6.489642578125,7.328019142150879,2.1343977451324463,-0.8410771489143372
1718030743301603600,6.499603515625,6.853642463684082,2.1678972244262695,-0.7357929348945618
1718030743311575800,6.509575927734375,6.327221393585205,2.311466693878174,-0.5156532526016235
1718030743321537800,6.519537841796875,5.876772403717041,2.493321180343628,-0.5204389095306396
1718030743331509200,6.52950927734375,5.54177713394165,2.6943182945251465,-0.4342973232269287
1718030743341472300,6.53947216796875,5.120640277862549,2.885744094848633,-0.46779683232307434
1718030743351442700,6.549442626953125,4.8329033851623535,3.0963125228881836,-0.18484555184841156
1718030743361445600,6.559445556640625,4.727619171142578,3.2787652015686035,0.01615155301988125
1718030743371419100,6.569419189453125,4.8089752197265625,3.5132617950439453,0.3128615617752075
1718030743381379800,6.5793798828125,4.866403102874756,3.848257064819336,0.6143572330474854
1718030743391352300,6.589352294921875,5.048855781555176,4.169493675231934,0.8638089895248413
1718030743401314300,6.599314208984375,5.446064472198486,4.590630054473877,1.2131611108779907
1718030743411285800,6.60928564453125,5.795416355133057,4.954339504241943,1.179661512374878
1718030743421248800,6.619248779296875,6.336792469024658,5.385645389556885,1.2083754539489746
1718030743431219500,6.629219482421875,6.777071952819824,5.816353797912598,1.0552347898483276
1718030743441183200,6.639183349609375,7.1988067626953125,6.203990936279297,0.6957131624221802
1718030743451153200,6.649153076171875,7.835297584533691,6.7310099601745605,0.32721850275993347
1718030743461117700,6.65911767578125,8.357531547546387,7.0995049476623535,-0.14656038582324982
1718030743471086800,6.6690869140625,8.735597610473633,7.502097129821777,-0.5970092415809631
1718030743481052200,6.67905224609375,8.946166038513184,7.688737392425537,-0.7310073375701904
1718030743491021000,6.68902099609375,9.119047164916992,7.80837869644165,-0.49651068449020386
1718030743500986600,6.698986572265625,9.387042999267578,7.717451095581055,-0.1657029688358307
1718030743510955000,6.708955078125,9.856036186218262,7.334599494934082,0.3367897868156433
1718030743520920800,6.7189208984375,10.473982810974121,7.022934436798096,0.7100701332092285
1718030743530889200,6.72888916015625,11.350354194641113,6.764509677886963,1.093519926071167
1718030743540855300,6.738855224609375,12.159128189086914,6.544369697570801,1.4189438819885254
1718030743550823400,6.748823486328125,12.714860916137695,6.63051176071167,1.893320918083191
1718030743560789800,6.758789794921875,12.978072166442871,6.702296257019043,2.084746837615967
1718030743570757600,6.768757568359375,12.64307689666748,6.7932233810424805,1.8885352611541748
1718030743580569300,6.7785693359375,12.130414009094238,6.774080753326416,1.423729419708252
1718030743590521600,6.788521484375,11.575279235839844,6.539584159851074,0.6861419081687927
1718030743600503600,6.798503662109375,11.393424987792969,6.19920539855957,0.0975075215101242
1718030743610459000,6.808458984375,11.6183500289917,5.591428279876709,-0.4295116662979126
1718030743620592600,6.818592529296875,12.442079544067383,4.624129772186279,-0.7932206988334656
1718030743630566000,6.82856591796875,13.61037540435791,3.661616802215576,-0.8841479420661926
1718030743640526800,6.83852685546875,14.668601036071777,2.713460922241211,-0.7836494445800781
1718030743650499000,6.8484990234375,15.592828750610352,1.8801604509353638,-0.36251261830329895
1718030743660461300,6.85846142578125,16.00439453125,1.186241865158081,0.34636107087135315
1718030743670432500,6.8684326171875,15.640685081481934,1.1048858165740967,0.8590233325958252
1718030743680241200,6.8782412109375,14.773884773254395,1.119242787361145,1.2179467678070068
1718030743690196000,6.888196044921875,13.514662742614746,1.4207384586334229,1.3806586265563965
1718030743700175400,6.89817529296875,12.159128189086914,1.5882359743118286,1.2562319040298462
1718030743710132500,6.908132568359375,11.062617301940918,1.7030915021896362,0.7674978375434875
1718030743720264400,6.918264404296875,10.13898754119873,1.932802438735962,0.07357929646968842
1718030743730239500,6.928239501953125,9.382257461547852,2.0141584873199463,-0.5826523303985596
1718030743740199000,6.938198974609375,8.773882865905762,2.0715861320495605,-1.109073281288147
1718030743750172200,6.948172119140625,8.170890808105469,1.999801516532898,-1.5451651811599731
1718030743760133400,6.95813330078125,7.820940971374512,1.7748762369155884,-1.8323038816452026
1718030743770105600,6.968105712890625,7.347161769866943,1.8179470300674438,-1.9280169010162354
1718030743780072700,6.97807275390625,6.978068828582764,2.0237298011779785,-1.9902302026748657
1718030743790039800,6.988039794921875,6.437291145324707,2.1056840419769287,-2.090728759765625
1718030743799968000,6.997968017578125,6.188437461853027,2.4646072387695312,-2.191227436065674
1718030743809969200,7.00796923828125,6.068796634674072,2.809173822402954,-2.3641088008880615
1718030743819944200,7.017944091796875,6.011368751525879,2.9144580364227295,-2.296511650085449
1718030743829748700,7.027748779296875,5.79063081741333,2.885744094848633,-2.0380866527557373
1718030743839707000,7.037706787109375,5.398207664489746,2.8426733016967773,-1.693520188331604
1718030743849837800,7.047837890625,5.020142078399658,2.9527430534362793,-1.339382529258728
1718030743859813400,7.0578134765625,4.684548377990723,3.0723843574523926,-1.0516455173492432
1718030743869772300,7.067772216796875,4.373481750488281,3.360121250152588,-0.6879364848136902
1718030743879746300,7.077746337890625,4.435695171356201,3.446262836456299,-0.4821537733078003
1718030743889706800,7.087706787109375,4.555335998535156,3.604189157485962,-0.3481557071208954
1718030743899679200,7.09767919921875,4.655834674835205,3.690330743789673,-0.4055834412574768
1718030743909641200,7.10764111328125,4.703691005706787,3.9487555027008057,-0.6592226624488831
1718030743919612700,7.11761279296875,5.010570526123047,4.226921081542969,-0.8315058946609497
1718030743929579800,7.127579833984375,5.182853698730469,4.542773723602295,-1.1904292106628418
1718030743939469000,7.137468994140625,5.551348686218262,4.695914268493652,-1.4829518795013428
1718030743949509600,7.147509521484375,5.862415313720703,4.9160542488098145,-1.7796618938446045
1718030743959488000,7.157488037109375,6.126224040985107,5.208576679229736,-2.0333011150360107
1718030743969444000,7.167444091796875,6.418148517608643,5.309075355529785,-2.1242282390594482
1718030743979420400,7.17742041015625,6.585646152496338,5.672784328460693,-2.1720848083496094
1718030743989378600,7.187378662109375,6.954140663146973,5.892923831939697,-2.3641088008880615
1718030743999352800,7.197352783203125,7.304090976715088,5.959922790527344,-2.541177749633789
1718030744009313000,7.20731298828125,7.605587005615234,5.763711452484131,-2.66560435295105
1718030744019286000,7.2172861328125,7.907082557678223,5.720640659332275,-2.651247501373291
1718030744029247500,7.22724755859375,8.01236629486084,5.591428279876709,-2.6799614429473877
1718030744039219200,7.23721923828125,8.357531547546387,5.5244293212890625,-2.60339093208313
1718030744049182000,7.247181884765625,9.013164520263672,5.4526448249816895,-2.296511650085449
1718030744059152600,7.257152587890625,9.812965393066406,5.3904314041137695,-1.8993029594421387
1718030744069116400,7.267116455078125,10.517053604125977,5.275575637817383,-1.602592945098877
1718030744079086300,7.27708642578125,11.235498428344727,4.700700283050537,-1.3968101739883423
1718030744089050600,7.287050537109375,11.70449161529541,4.149752616882324,-1.195214867591858
1718030744099020300,7.297020263671875,11.82891845703125,4.106681823730469,-1.1282159090042114
1718030744108985000,7.306985107421875,11.991630554199219,4.3178486824035645,-1.0037890672683716
1718030744118954200,7.316954345703125,11.737991333007812,4.327419757843018,-1.046859860420227
1718030744128919600,7.32691943359375,11.570493698120117,4.097110748291016,-1.2430713176727295
1718030744138888200,7.33688818359375,11.718849182128906,3.7046875953674316,-1.4781662225723267
1718030744148854000,7.34685400390625,12.346366882324219,3.47019100189209,-1.8897316455841064
1718030744158822400,7.356822509765625,12.973286628723145,3.019742250442505,-2.1481566429138184
1718030744168633600,7.366633544921875,13.34716510772705,2.2779672145843506,-2.1816561222076416
1718030744178586000,7.376586181640625,14.06979751586914,1.7653049230575562,-2.105085611343384
1718030744188722400,7.386722412109375,14.735600471496582,1.4159528017044067,-1.7030915021896362
1718030744198694000,7.39669384765625,15.266806602478027,1.7700905799865723,-1.4590235948562622
1718030744208657000,7.406656982421875,14.955739974975586,2.0865414142608643,-1.1856436729431152
1718030744218627300,7.41662744140625,13.505090713500977,1.607378602027893,-0.8410771489143372
1718030744228591400,7.42659130859375,11.599207878112793,1.4590235948562622,-0.4007977843284607
1718030744238561300,7.436561279296875,9.856036186218262,1.6552350521087646,-0.2231307178735733
1718030744248525800,7.44652587890625,8.247461318969727,2.0817556381225586,-0.5252245664596558
1718030744258495000,7.456494873046875,7.001997470855713,1.7988044023513794,-0.7022934556007385
1718030744268460300,7.466460205078125,6.265007972717285,1.7413766384124756,-1.195214867591858
1718030744278429000,7.476428955078125,6.049654006958008,1.8705891370773315,-1.5068800449371338
1718030744288396300,7.486396240234375,6.068796634674072,2.368894338607788,-1.851446509361267
1718030744298363400,7.49636328125,6.0879387855529785,2.699103832244873,-2.138585329055786
1718030744308329000,7.506328857421875,6.212365627288818,3.1447670459747314,-2.2438695430755615
1718030744318297600,7.516297607421875,6.178866386413574,3.5084762573242188,-2.301297187805176
1718030744328108500,7.526108642578125,5.997011661529541,3.824328899383545,-2.105085611343384
1718030744338061600,7.5360615234375,5.608776092529297,4.140181541442871,-1.8370895385742188
1718030744348197600,7.54619775390625,5.149354457855225,4.226921081542969,-1.4638092517852783
1718030744358168800,7.5561689453125,4.934000492095947,4.2556352615356445,-1.046859860420227
1718030744368131800,7.5661318359375,4.847260475158691,4.179064750671387,-0.5491527915000916
1718030744378102500,7.5761025390625,4.938786029815674,3.9870407581329346,-0.06999006122350693
1718030744388066300,7.58606640625,5.278566837310791,3.934398651123047,0.26500511169433594
1718030744398036200,7.5960361328125,5.867201328277588,3.8769710063934326,0.45643091201782227
1718030744408000800,7.606000732421875,6.298507213592529,3.8769710063934326,0.6430711150169373
1718030744417970200,7.61597021484375,6.705287456512451,3.762115478515625,1.00259268283844
1718030744427780400,7.6257802734375,6.801000118255615,3.8769710063934326,1.007378339767456
1718030744437734000,7.63573388671875,6.226722717285156,3.455834150314331,0.4372883439064026
1718030744447869400,7.645869384765625,6.4947190284729,4.3752760887146,1.1748759746551514
1718030744457841400,7.65584130859375,7.060023307800293,4.64805793762207,1.2993026971817017
1718030744467804000,7.665803955078125,7.438089370727539,4.403990268707275,1.1700903177261353
1718030744477774800,7.67577490234375,8.175676345825195,4.3178486824035645,1.3423734903335571
1718030744487738400,7.68573828125,8.783453941345215,4.3657050132751465,1.6821542978286743
1718030744497708500,7.69570849609375,9.592825889587402,4.260420799255371,1.4859428405761719
1718030744507672600,7.705672607421875,9.875179290771484,4.604987144470215,0.32721850275993347
1718030744517642200,7.715642333984375,9.812965393066406,5.045266628265381,-0.5300102233886719
1718030744527452400,7.725452392578125,10.03310489654541,5.6823554039001465,-0.6783652305603027
1718030744537406000,7.735406005859375,10.220343589782715,5.921638011932373,-0.43908295035362244
1718030744547541200,7.745541259765625,10.502696990966797,5.806782245635986,0.2027917206287384
1718030744557513500,7.755513427734375,11.014760971069336,5.505286693572998,0.8925228714942932
1718030744567475700,7.765475830078125,11.484352111816406,5.323431968688965,1.3232308626174927
1718030744577447000,7.775447021484375,12.298510551452637,4.997410297393799,1.4141582250595093
1718030744587410200,7.78541015625,12.772289276123047,4.652843475341797,0.5042873620986938
1718030744597380400,7.79538037109375,12.90628719329834,4.9160542488098145,-0.2763710021972656
1718030744607344600,7.8053447265625,12.676576614379883,6.113063812255859,0.11186445504426956
1718030744617314300,7.815314208984375,12.015559196472168,6.309873104095459,0.5904290080070496
1718030744627124200,7.825124267578125,11.335997581481934,6.227919101715088,0.4899304509162903
1718030744637078000,7.835078125,10.914261817932129,6.50608491897583,0.2554338276386261
1718030744647213300,7.84521337890625,10.3016996383667,6.673582553863525,0.1788634955883026
1718030744657185300,7.855185302734375,9.607182502746582,6.343372821807861,0.4372883439064026
1718030744667147500,7.8651474609375,9.454042434692383,5.5962138175964355,0.8542376756668091
1718030744677118700,7.87511865234375,10.104889869689941,4.490131855010986,1.2658032178878784
1718030744687082000,7.88508203125,11.536993980407715,3.173480987548828,1.490728497505188
1718030744697052400,7.895052490234375,13.059428215026855,2.1918256282806396,1.6630117893218994
1718030744707016400,7.905016357421875,13.993227005004883,1.4685949087142944,2.103889226913452
1718030744716986000,7.914986083984375,14.036297798156738,1.1048858165740967,2.4053850173950195
1718030744726796000,7.924796142578125,13.256237030029297,0.04187439754605293,2.994617462158203
1718030744736749800,7.934749755859375,12.20219898223877,0.9415757060050964,2.630310297012329
1718030744746885000,7.944885009765625,11.21635627746582,1.9184455871582031,1.9746768474578857
1718030744756857000,7.954857177734375,10.26341438293457,2.163111686706543,1.648654818534851
1718030744766819600,7.964819580078125,9.157332420349121,1.4350954294204712,1.5960127115249634
1718030744776790800,7.974790771484375,8.611170768737793,2.1822543144226074,0.9355936646461487
1718030744786754000,7.984754150390625,8.166105270385742,2.770888566970825,0.01615155301988125
1718030744796724200,7.99472412109375,7.533802032470703,2.5124638080596924,-0.865005373954773
1718030744806688300,8.004688232421875,7.146164894104004,2.2301106452941895,-1.3968101739883423
1718030744816658200,8.014658203125,7.045666217803955,2.3545374870300293,-1.5020943880081177
1718030744826622700,8.024622802734376,6.987640380859375,2.210968017578125,-1.113858938217163
1718030744836591900,8.034591796875,6.973283290863037,1.9615163803100586,-0.778863787651062
1718030744846557200,8.04455712890625,6.901498794555664,1.7461622953414917,-0.6017948985099792
1718030744856525800,8.05452587890625,7.079165935516357,1.6983058452606201,-0.5778666734695435
1718030744866491600,8.06449169921875,6.958926677703857,1.8083757162094116,-0.7836494445800781
1718030744876460000,8.0744599609375,6.901498794555664,1.8562321662902832,-0.9415757060050964
1718030744886425900,8.08442578125,6.518647193908691,1.932802438735962,-0.9224331378936768
1718030744896394200,8.094394287109376,6.198009014129639,2.004587173461914,-0.9032905697822571
1718030744906360300,8.1043603515625,5.876772403717041,2.1200408935546875,-0.836291491985321
1718030744916328400,8.114328369140624,5.752345561981201,2.1774685382843018,-0.6783652305603027
1718030744926294800,8.124294677734374,5.733202934265137,2.306680917739868,-0.6352944374084473
1718030744936262700,8.1342626953125,5.737988471984863,2.526820659637451,-0.6831508874893188
1718030744946229000,8.14422900390625,6.001797199249268,2.6225335597991943,-0.8793623447418213
1718030744956196900,8.15419677734375,6.265007972717285,2.8426733016967773,-1.0707881450653076
1718030744966163500,8.16416357421875,6.427719593048096,2.9766714572906494,-1.4781662225723267
1718030744976131000,8.174131103515625,6.5042901039123535,3.3744781017303467,-1.7413766384124756
1718030744986098000,8.184097900390626,6.667002201080322,3.7190446853637695,-1.908874273300171
1718030744996065300,8.194065185546876,6.872784614562988,3.8865420818328857,-2.0237298011779785
1718030745006032400,8.204032470703124,7.232306480407715,3.7908291816711426,-2.018944025039673
1718030745015999700,8.213999755859374,7.576872825622559,3.8386857509613037,-1.9950158596038818
1718030745025812000,8.22381201171875,7.830512046813965,3.699902057647705,-1.8179470300674438
1718030745035764000,8.233763916015626,7.797012805938721,3.7334015369415283,-1.4685949087142944
1718030745045900800,8.24390087890625,7.552944660186768,4.13060998916626,-1.3010972738265991
1718030745055871500,8.25387158203125,7.533802032470703,4.5714874267578125,-1.5068800449371338
1718030745065835300,8.263835205078125,7.916653633117676,4.949553489685059,-1.9519450664520264
1718030745075805200,8.27380517578125,8.45324420928955,4.968696117401123,-2.589034080505371
1718030745085769700,8.283769775390626,9.119047164916992,4.796412944793701,-3.1106693744659424
1718030745095739100,8.2937392578125,10.095318794250488,4.528416633605957,-3.345165967941284
1718030745105704200,8.3037041015625,11.168499946594238,4.504488468170166,-3.5371899604797363
1718030745115673000,8.313673095703125,11.857632637023926,4.729413986206055,-3.5324044227600098
1718030745125638400,8.323638427734375,12.451650619506836,4.628915309906006,-3.6568312644958496
1718030745135607000,8.33360693359375,12.815360069274902,4.346562385559082,-3.628117322921753
1718030745145572900,8.34357275390625,12.815360069274902,3.982254981994629,-3.6472599506378174
1718030745155541200,8.353541259765626,12.576077461242676,3.8530426025390625,-3.359523057937622
1718030745165507300,8.36350732421875,12.221940040588379,3.8865420818328857,-3.2063822746276855
1718030745175475500,8.373475341796874,11.948559761047363,3.824328899383545,-3.1489546298980713
1718030745185441800,8.38344189453125,11.833703994750977,3.7525441646575928,-3.28773832321167
1718030745195409700,8.39340966796875,11.986845016479492,3.4606196880340576,-3.5467612743377686
1718030745205376300,8.403376220703125,12.427722930908203,3.226123094558716,-3.809971809387207
1718030745215343900,8.41334375,12.915858268737793,3.019742250442505,-3.666402578353882
1718030745225224000,8.423223876953125,13.183854103088379,2.8043880462646484,-3.249453067779541
1718030745235065600,8.433065673828125,13.016357421875,2.4837498664855957,-2.66560435295105
1718030745245244700,8.44324462890625,12.623933792114258,2.091326951980591,-1.9280169010162354
1718030745255216400,8.45321630859375,11.958130836486816,1.7126628160476685,-1.2047861814498901
1718030745265179100,8.46317919921875,11.331212043762207,1.5595221519470215,-0.7692924737930298
1718030745275149800,8.47314990234375,10.7228364944458,1.4733805656433105,-0.43908295035362244
1718030745285113600,8.483113525390625,10.061819076538086,1.1910275220870972,-0.2715853750705719
1718030745295083500,8.49308349609375,9.205188751220703,0.9990034699440002,-0.24227328598499298
1718030745305061400,8.503061279296874,8.529814720153809,0.8075776696205139,-0.28594231605529785
1718030745315032300,8.5130322265625,7.931010723114014,0.7022934556007385,-0.3290131092071533
1718030745324982300,8.522982177734375,7.442874908447266,0.7357929348945618,-0.43908295035362244
1718030745334951200,8.532951171875,7.031309127807617,0.865005373954773,-0.2955136001110077
1718030745344916700,8.542916748046874,6.786643028259277,1.0277173519134521,-0.3433700501918793
1718030745354885000,8.552885009765625,6.63350248336792,1.430309772491455,-0.4486542344093323
1718030745364851200,8.562851318359375,6.729215621948242,1.6169499158859253,-0.7836494445800781
1718030745374819300,8.5728193359375,7.060023307800293,1.8083757162094116,-1.2526426315307617
1718030745384785400,8.582785400390625,7.371089935302734,1.8179470300674438,-1.7222341299057007
1718030745394753500,8.59275341796875,7.47637414932251,1.9040886163711548,-1.9280169010162354
1718030745404719900,8.602719970703125,7.6390862464904785,1.9471594095230103,-1.9902302026748657
1718030745414687700,8.612687744140626,7.581658363342285,2.234896421432495,-1.731805443763733
1718030745424654300,8.622654296875,7.304090976715088,2.3784656524658203,-1.3968101739883423
1718030745434622000,8.6326220703125,6.958926677703857,2.550748825073242,-1.0564311742782593
1718030745444588500,8.642588623046874,6.609574317932129,2.6321048736572266,-0.7214360237121582
1718030745454556200,8.65255615234375,6.365506649017334,2.7900311946868896,-0.4103690981864929
1718030745464523000,8.66252294921875,6.15972375869751,2.7086751461029053,0.054436713457107544
1718030745474490600,8.67249072265625,6.336792469024658,2.775674343109131,0.5042873620986938
1718030745484457500,8.68245751953125,6.293721675872803,2.861815929412842,0.7920243144035339
1718030745494424800,8.6924248046875,6.647859573364258,3.1830523014068604,0.8542376756668091
1718030745504392000,8.702391845703126,7.098308563232422,3.4366915225982666,0.6861419081687927
1718030745514359300,8.712359375,7.739584922790527,3.6329028606414795,0.19322042167186737
1718030745524287500,8.72228759765625,8.601598739624023,3.9152560234069824,-0.3481557071208954
1718030745534251000,8.7322509765625,9.635896682739258,4.217350006103516,-0.7884350419044495
1718030745544260600,8.742260498046875,10.641480445861816,4.423132419586182,-1.2239288091659546
1718030745554228700,8.752228759765625,11.225927352905273,4.604987144470215,-1.5738791227340698
1718030745564194800,8.76219482421875,11.49392318725586,4.590630054473877,-1.8993029594421387
1718030745574163000,8.772162841796876,11.153544425964355,4.715056896209717,-2.1003000736236572
1718030745584129300,8.78212939453125,10.52662467956543,4.9878387451171875,-1.9232312440872192
1718030745594097200,8.79209716796875,9.903892517089844,5.174479007720947,-1.6313068866729736
1718030745604063700,8.802063720703124,9.645467758178711,5.294718265533447,-1.1473584175109863
1718030745614031400,8.81203125,10.100104331970215,5.26600456237793,-0.7214360237121582
1718030745623998200,8.821998291015625,10.430912017822266,4.863411903381348,-0.3768695592880249
1718030745633965800,8.8319658203125,11.139187812805176,4.3417768478393555,0.020937198773026466
1718030745643932400,8.841932373046875,12.034701347351074,3.7286159992218018,0.4612165689468384
1718030745653900000,8.851900146484375,12.925429344177246,3.7525441646575928,0.9212366938591003
1718030745663867000,8.861866943359376,14.08415412902832,3.675973892211914,3.104687452316284
1718030745673834200,8.871834228515626,12.762718200683594,3.5467612743377686,2.1373889446258545
1718030745683801300,8.88180126953125,12.351152420043945,3.958326816558838,1.5050854682922363
1718030745693768700,8.891768798828124,11.871989250183105,4.576273441314697,0.8685946464538574
1718030745703735600,8.901735595703125,11.312068939208984,4.734199523925781,0.06400800496339798
1718030745713703000,8.911702880859375,10.837692260742188,4.4374895095825195,-0.7884350419044495
1718030745723670000,8.921669921875,10.852048873901367,3.881756544113159,-1.334596872329712
1718030745733637400,8.931637451171875,11.182856559753418,3.2691938877105713,-1.4877375364303589
1718030745743604500,8.9416044921875,11.905488967895508,2.478964328765869,-0.9032905697822571
1718030745753571600,8.951571533203126,12.872787475585938,1.7988044023513794,-0.07477571070194244
1718030745763500000,8.9615,13.830514907836914,1.4159528017044067,0.6717849373817444
1718030745773463600,8.971463623046875,13.801800727844238,0.9990034699440002,1.3088740110397339
1718030745783434500,8.9814345703125,13.356736183166504,0.5778666734695435,1.5194423198699951
1718030745793398500,8.9913984375,12.652647972106934,0.5108676552772522,1.7443677186965942
1718030745803330000,9.001330078125,11.666206359863281,0.381655216217041,1.7730815410614014
1718030745813291000,9.011291015625,10.62233829498291,0.7214360237121582,1.428515076637268
1718030745823225600,9.0212255859375,9.516255378723145,0.8267202377319336,0.9499505758285522
1718030745833184000,9.03118408203125,8.601598739624023,1.0085747241973877,0.42293140292167664
1718030745843198700,9.04119873046875,7.878368377685547,1.0085747241973877,-0.09870393574237823
1718030745853162800,9.051162841796875,7.332805156707764,1.0277173519134521,-0.5156532526016235
1718030745863094500,9.061094482421876,6.973283290863037,0.9463613629341125,-0.7692924737930298
1718030745873055000,9.071054931640624,6.863213539123535,1.0618150234222412,-1.0947163105010986
1718030745882990000,9.080989990234375,6.877570629119873,1.334596872329712,-1.334596872329712
1718030745892948200,9.0909482421875,6.9445695877075195,1.5068800449371338,-1.4925230741500854
1718030745903001600,9.101001708984375,6.925426959991455,1.578664779663086,-1.5020943880081177
1718030745912969500,9.110969482421876,6.872784614562988,1.5355939865112305,-1.44945228099823
1718030745922936000,9.12093603515625,6.772286415100098,1.5499508380889893,-1.3680963516235352
1718030745932903700,9.130903564453124,6.499504566192627,1.5930216312408447,-1.262213945388794
1718030745942831900,9.140831787109375,6.360720634460449,1.5451651811599731,-1.200000524520874
1718030745952795400,9.15079541015625,6.260222434997559,1.6265212297439575,-1.085145115852356
1718030745962688800,9.160688720703124,6.202794551849365,1.6839489936828613,-1.113858938217163
1718030745972645400,9.170645263671876,6.466004848480225,1.913659930229187,-1.1521440744400024
1718030745982525400,9.180525390625,7.012166976928711,2.1200408935546875,-1.109073281288147
1718030745992369700,9.19036962890625,7.706085205078125,2.1439690589904785,-1.1425727605819702
1718030746002441200,9.200441162109374,8.209176063537598,2.196611166000366,-1.0660024881362915
1718030746012394000,9.21039404296875,8.510671615600586,1.9184455871582031,-0.9511470198631287
1718030746022298400,9.22029833984375,8.458029747009277,2.076371908187866,-0.8458628058433533
1718030746032246300,9.230246337890625,8.410173416137695,2.2444677352905273,-0.898504912853241
1718030746042193700,9.240193603515625,8.070392608642578,2.3258235454559326,-1.022931694984436
1718030746052141600,9.2501416015625,8.01236629486084,2.478964328765869,-1.1473584175109863
1718030746062050800,9.26005078125,7.99800968170166,2.66560435295105,-1.5499508380889893
1718030746071995000,9.269994873046874,8.38145923614502,3.1351959705352783,-2.105085611343384
1718030746081946400,9.2799462890625,9.19561767578125,3.518047571182251,-2.785245656967163
1718030746091891200,9.28989111328125,9.741181373596191,3.5371899604797363,-3.4749767780303955
1718030746101803500,9.299803466796876,10.196415901184082,3.580260992050171,-4.049253940582275
1718030746111745000,9.3097451171875,10.540982246398926,3.5132617950439453,-4.671986103057861
1718030746121660400,9.319660400390624,10.789835929870605,3.4893336296081543,-4.9639105796813965
1718030746131599400,9.329599365234374,11.09611701965332,3.565903902053833,-5.0979084968566895
1718030746141555700,9.3395556640625,11.642278671264648,3.589832067489624,-5.040481090545654
1718030746151496400,9.349496337890624,12.120842933654785,3.809971809387207,-4.566701889038086
1718030746161412900,9.359412841796875,12.389437675476074,3.7334015369415283,-4.369892120361328
1718030746171351000,9.36935107421875,12.327223777770996,3.226123094558716,-4.207180500030518
1718030746181269800,9.379269775390625,11.915060043334961,2.531606435775757,-4.283750534057617
1718030746191206100,9.3892060546875,11.379068374633789,2.2636101245880127,-4.274179458618164
1718030746201127000,9.399126953125,11.211570739746094,2.0093727111816406,-4.164109706878662
1718030746211061500,9.4090615234375,11.426924705505371,1.4925230741500854,-3.991826295852661
1718030746221060400,9.419060302734374,12.130414009094238,0.9750752449035645,-3.685544967651367
1718030746231001300,9.42900146484375,13.212568283081055,0.7166503667831421,-3.2303106784820557
1718030746241181400,9.439181396484376,14.333605766296387,0.534795880317688,-2.6703901290893555
1718030746251361500,9.449361572265625,15.218950271606445,0.4103690981864929,-1.9950158596038818
1718030746261541400,9.459541259765626,15.707684516906738,0.4247260093688965,-1.4781662225723267
1718030746271721500,9.469721435546875,15.497116088867188,0.6400800347328186,-1.3250255584716797
1718030746281793500,9.47979345703125,14.611173629760742,0.5204389095306396,-1.01814603805542
1718030746291771400,9.489771484375,13.332807540893555,0.4821537733078003,-0.778863787651062
1718030746301728000,9.49972802734375,11.70449161529541,0.4342973232269287,-1.01814603805542
1718030746311703800,9.509703857421876,10.679765701293945,0.5443671345710754,-1.109073281288147
1718030746321662500,9.519662353515624,9.7938232421875,0.9032905697822571,-1.4159528017044067
1718030746331636500,9.529636474609376,8.697312355041504,1.0085747241973877,-1.8323038816452026
1718030746341597000,9.539596923828125,7.921439170837402,1.1240284442901611,-2.2534406185150146
1718030746351569700,9.549569580078124,7.294519901275635,1.4829518795013428,-2.651247501373291
1718030746361531400,9.559531494140625,6.796214580535889,1.908874273300171,-2.9001009464263916
1718030746371503000,9.569503173828124,6.303293228149414,2.3306093215942383,-3.2303106784820557
1718030746381465900,9.5794658203125,5.910272121429443,2.6225335597991943,-3.2303106784820557
1718030746391436500,9.5894365234375,5.656632900238037,2.785245656967163,-3.139383316040039
1718030746401439000,9.59943896484375,5.522634506225586,2.9623143672943115,-3.077169895172119
1718030746411413000,9.6094130859375,5.436492919921875,2.967100143432617,-2.6608188152313232
1718030746421373400,9.61937353515625,5.4173502922058105,2.9766714572906494,-2.3736801147460938
1718030746431346000,9.629345947265625,5.340780258178711,2.8426733016967773,-2.0333011150360107
1718030746441313300,9.639313232421875,5.144568920135498,2.919243574142456,-1.6456637382507324
1718030746451280400,9.6492802734375,4.909473896026611,2.919243574142456,-1.339382529258728
1718030746461247500,9.65924755859375,4.679762840270996,3.0388846397399902,-1.1665010452270508
1718030746471209500,9.66920947265625,4.588835716247559,3.173480987548828,-0.8123632669448853
1718030746481181000,9.679180908203126,4.593621253967285,3.3409786224365234,-0.5539384484291077
1718030746491144000,9.68914404296875,4.6749773025512695,3.3649067878723145,-0.2470589429140091
1718030746501114600,9.699114501953124,4.904688358306885,3.4749767780303955,-0.012562318705022335
1718030746511078400,9.709078369140625,5.158925533294678,3.5467612743377686,0.001794616924598813
1718030746521048300,9.71904833984375,5.513063430786133,3.690330743789673,-0.1657029688358307
1718030746531012900,9.729012939453124,6.150152206420898,3.8147575855255127,-0.2955136001110077
1718030746540982300,9.738982177734375,6.600003242492676,4.030111312866211,-0.5204389095306396
1718030746550947000,9.748947021484375,7.270591735839844,4.144967079162598,-0.7836494445800781
1718030746560916000,9.758916015625,7.552944660186768,4.3657050132751465,-1.046859860420227
1718030746570881500,9.768881591796875,7.93579626083374,4.576273441314697,-1.3441680669784546
1718030746580850200,9.77885009765625,8.194819450378418,4.767699241638184,-1.4877375364303589
1718030746590816000,9.78881591796875,8.663812637329102,5.136193752288818,-1.7892330884933472
1718030746600784400,9.798784423828126,9.123832702636719,5.423930644989014,-2.0620148181915283
1718030746610750500,9.80875048828125,9.300901412963867,5.816353797912598,-2.2821545600891113
1718030746620718600,9.818718505859374,9.506684303283691,6.007779598236084,-2.052443504333496
1718030746630684700,9.8286845703125,9.473184585571289,6.089135646820068,-1.6600207090377808
1718030746640652800,9.83865283203125,9.482755661010742,6.13699197769165,-1.4111671447753906
1718030746650580500,9.84858056640625,9.521040916442871,6.141777515411377,-1.1904292106628418
1718030746660544300,9.858544189453125,10.066604614257812,6.15134859085083,-1.0037890672683716
1718030746670553600,9.8685537109375,10.65105152130127,5.955137252807617,-0.6783652305603027
1718030746680522000,9.87852197265625,11.197213172912598,6.141777515411377,-0.2566302418708801
1718030746690487800,9.88848779296875,11.72842025756836,6.141777515411377,0.1788634955883026
1718030746700456200,9.898456298828124,12.058629989624023,6.1226348876953125,0.3032902777194977
1718030746710383600,9.908383544921875,12.082557678222656,5.720640659332275,0.04486542567610741
1718030746720347600,9.91834765625,11.881561279296875,5.275575637817383,-0.7692924737930298
1718030746730356700,9.928356689453125,11.44128131866455,4.801198482513428,-1.1569297313690186
1718030746740325400,9.938325439453125,11.326425552368164,4.643272399902344,-1.2861422300338745
1718030746750291200,9.948291259765625,11.747562408447266,4.164707660675049,-1.1904292106628418
1718030746760259300,9.95825927734375,12.53300666809082,3.3122646808624268,-0.898504912853241
1718030746770225400,9.968225341796876,13.385449409484863,2.7086751461029053,-0.50129634141922
1718030746780193500,9.978193603515624,14.285151481628418,2.1678972244262695,-0.12741780281066895
1718030746790160000,9.988159912109374,14.582459449768066,1.669592022895813,0.23629122972488403
1718030746800127700,9.998127685546875,14.395819664001465,1.5690934658050537,0.2315055876970291
1718030746810094300,10.00809423828125,13.62473201751709,1.4973087310791016,0.10229317098855972
1718030746820062000,10.01806201171875,12.375080108642578,1.7988044023513794,-0.18963119387626648
1718030746830028500,10.028028564453125,10.995617866516113,2.2396819591522217,-0.47258245944976807
1718030746839996400,10.037996337890625,9.750752449035645,2.641676187515259,-1.089930772781372
1718030746849924400,10.04792431640625,8.644669532775879,2.746960401535034,-1.5738791227340698
1718030746859888000,10.05788818359375,7.849654674530029,2.991028308868408,-1.8705891370773315
1718030746869897500,10.0678974609375,7.294519901275635,3.0723843574523926,-2.076371908187866
1718030746879865600,10.077865478515625,6.863213539123535,3.163909673690796,-2.0715861320495605
1718030746889832000,10.08783203125,6.690930366516113,3.081955671310425,-2.0141584873199463
1718030746899799800,10.0977998046875,6.580860614776611,2.9288148880004883,-1.8610178232192993
1718030746909766100,10.10776611328125,6.542575359344482,2.8139593601226807,-1.7892330884933472
1718030746919734300,10.117734375,6.399005889892578,2.6943182945251465,-1.7222341299057007
1718030746929700600,10.12770068359375,6.231508255004883,2.6847469806671143,-1.82273268699646
1718030746939668500,10.13766845703125,6.0161542892456055,2.9001009464263916,-1.9232312440872192
1718030746949635000,10.147635009765626,5.982655048370361,2.9623143672943115,-2.1098713874816895
1718030746959602700,10.157602783203124,5.699703693389893,3.053241729736328,-2.1098713874816895
1718030746969569500,10.167569580078125,5.4173502922058105,3.1106693744659424,-2.210369825363159
1718030746979537000,10.177536865234375,5.091926574707031,3.336193084716797,-2.0811574459075928
1718030746989503700,10.187503662109375,4.890331268310547,3.4845480918884277,-1.8801604509353638
1718030746999471400,10.197471435546875,4.603192329406738,3.786043643951416,-1.6217355728149414
1718030747009438200,10.207438232421875,4.378267288208008,3.929612874984741,-1.578664779663086
1718030747019405600,10.217405517578126,4.339982032775879,4.217350006103516,-1.4733805656433105
1718030747029217800,10.2272177734375,4.521836757659912,4.633700847625732,-1.4159528017044067
1718030747039169800,10.237169677734375,4.986642360687256,4.777270317077637,-1.454237937927246
1718030747049307000,10.247306884765624,5.618347644805908,4.901697158813477,-1.5738791227340698
1718030747059277600,10.257277587890625,6.250650882720947,4.820341110229492,-1.693520188331604
1718030747069241300,10.267241455078125,6.796214580535889,4.77248477935791,-1.827518343925476
1718030747079211300,10.277211181640626,7.241877555847168,4.657629489898682,-1.9184455871582031
1718030747089175800,10.28717578125,7.529016494750977,4.738985061645508,-2.042872428894043
1718030747099145200,10.297145263671876,7.849654674530029,4.810770034790039,-2.334796667098999
1718030747109110000,10.307110107421876,8.094321250915527,5.14576530456543,-2.5459632873535156
1718030747119079200,10.3170791015625,8.395816802978516,5.352146148681641,-3.014956474304199
1718030747129044500,10.32704443359375,8.61595630645752,5.438287734985352,-3.503690481185913
1718030747139013000,10.33701318359375,8.927022933959961,5.562714576721191,-3.8769710063934326
1718030747148979000,10.34697900390625,9.32004451751709,5.543571949005127,-4.049253940582275
1718030747158947300,10.356947265625,9.731609344482422,5.55314302444458,-3.9774694442749023
1718030747168913400,10.366913330078125,10.167701721191406,5.457430362701416,-3.8195431232452393
1718030747178881300,10.37688134765625,10.5361967086792,5.213362216949463,-3.384049415588379
1718030747188847900,10.386847900390626,10.756336212158203,5.251647472381592,-3.029313564300537
1718030747198815700,10.396815673828126,11.024332046508789,5.232504844665527,-2.641676187515259
1718030747208782000,10.406781982421874,11.100902557373047,4.954339504241943,-2.421536445617676
1718030747218750000,10.41675,11.120044708251953,4.872983455657959,-2.50289249420166
1718030747228562000,10.42656201171875,10.842477798461914,4.849055290222168,-2.7086751461029053
1718030747238514000,10.436513916015626,10.856834411621094,4.8059844970703125,-3.067598581314087
1718030747248650800,10.446650634765625,11.053046226501465,4.633700847625732,-3.3690943717956543
1718030747258621700,10.45662158203125,11.503495216369629,4.246063709259033,-3.580260992050171
1718030747268585200,10.466585205078125,12.250653266906738,3.800400495529175,-3.7190446853637695
1718030747278555400,10.476555419921874,13.135997772216797,3.652045488357544,-3.4893336296081543
1718030747288519700,10.486519775390626,13.720444679260254,3.384049415588379,-3.005385160446167
1718030747298489300,10.4964892578125,13.88794231414795,3.0867412090301514,-2.4358935356140137
1718030747308454100,10.5064541015625,13.385449409484863,2.761317253112793,-1.5499508380889893
1718030747318423000,10.516423095703125,12.80578899383545,2.4406790733337402,-0.8745766878128052
1718030747328390400,10.526390380859375,12.029915809631348,2.1343977451324463,-0.251844584941864
1718030747338357500,10.536357421875,11.105688095092773,2.0380866527557373,0.14057832956314087
1718030747348322800,10.54632275390625,10.191629409790039,1.9663020372390747,0.3320041298866272
1718030747358291500,10.55629150390625,9.281759262084961,2.0237298011779785,0.3128615617752075
1718030747368257300,10.56625732421875,8.434102058410645,1.9423737525939941,-0.0891326442360878
1718030747378225700,10.5762255859375,7.753942012786865,1.8801604509353638,-0.44386860728263855
1718030747388191700,10.586191650390624,7.203592777252197,2.0141584873199463,-0.6735795736312866
1718030747398160000,10.596159912109375,6.561717987060547,2.1343977451324463,-0.8889335989952087
1718030747408126200,10.606126220703125,6.193222999572754,2.2923240661621094,-1.042074203491211
1718030747418094000,10.616093994140625,5.8719868659973145,2.3545374870300293,-0.9032905697822571
1718030747427905800,10.62590576171875,5.60399055480957,2.5363919734954834,-0.6544370055198669
1718030747437858000,10.635858154296875,5.426921844482422,2.66560435295105,-0.43908295035362244
1718030747447994600,10.64599462890625,5.422136306762695,2.823530673980713,-0.23748764395713806
1718030747457965800,10.6559658203125,5.3694939613342285,2.9048867225646973,-0.1704886108636856
1718030747467929000,10.66592919921875,5.426921844482422,3.077169895172119,-0.06520441919565201
1718030747477899300,10.675899169921875,5.517848968505859,3.1926236152648926,0.001794616924598813
1718030747487863600,10.685863525390625,5.7858452796936035,3.3026933670043945,-0.07477571070194244
1718030747497833200,10.695833251953125,6.073582172393799,3.4845480918884277,-0.09391828626394272
1718030747507798000,10.705798095703125,6.3224358558654785,3.446262836456299,-0.13220344483852386
1718030747517767200,10.71576708984375,6.427719593048096,3.3888349533081055,-0.2667997181415558
1718030747527577600,10.72557763671875,6.437291145324707,3.4366915225982666,-0.4055834412574768
1718030747537531000,10.73553076171875,6.418148517608643,3.6472599506378174,-0.5443671345710754
1718030747547666700,10.745666748046874,6.63350248336792,3.7908291816711426,-0.4821537733078003
1718030747557638400,10.755638427734375,7.0648088455200195,3.9774694442749023,-0.5587241053581238
1718030747567601200,10.76560107421875,7.581658363342285,3.991826295852661,-0.7022934556007385
1718030747577571800,10.77557177734375,8.099106788635254,3.8865420818328857,-0.8458628058433533
1718030747587535600,10.78553564453125,8.769096374511719,3.943969964981079,-1.0037890672683716
1718030747597505500,10.795505615234376,9.425328254699707,4.135395526885986,-1.2287144660949707
1718030747607469800,10.8054697265625,9.889535903930664,4.25084924697876,-1.3250255584716797
1718030747617439500,10.815439453125,10.13898754119873,4.456632137298584,-1.4159528017044067
1718030747627249700,10.825249755859375,10.253843307495117,4.686343193054199,-1.4925230741500854
1718030747637203200,10.835203125,10.225129127502441,4.652843475341797,-1.5308083295822144
1718030747647338500,10.84533837890625,10.272985458374023,4.9399824142456055,-1.7509479522705078
1718030747657310700,10.855310791015626,10.435697555541992,5.054837703704834,-2.042872428894043
1718030747667273000,10.86527294921875,10.852048873901367,5.352146148681641,-2.3736801147460938
1718030747677244200,10.875244140625,11.292926788330078,5.261219024658203,-2.66560435295105
1718030747687207400,10.88520751953125,11.680563926696777,4.901697158813477,-2.713460922241211
1718030747697177900,10.895177734375,12.125628471374512,4.600201606750488,-2.6321048736572266
1718030747707142000,10.905141845703126,12.705289840698242,4.193421840667725,-2.612962245941162
1718030747717111600,10.915111572265625,13.159926414489746,3.972683906555176,-2.368894338607788
1718030747726921500,10.92492138671875,13.36152172088623,4.125824451446533,-2.272583246231079
1718030747736875300,10.934875244140626,12.935001373291016,4.485345840454102,-2.0333011150360107
1718030747747010600,10.945010498046875,12.135200500488281,4.638486862182617,-1.937588095664978
1718030747756982500,10.954982421875,11.197213172912598,4.604987144470215,-1.999801516532898
1718030747766945000,10.964945068359375,10.368699073791504,4.681557655334473,-2.407179594039917
1718030747776916000,10.974916015625,9.54496955871582,4.633700847625732,-2.4885356426239014
1718030747786879500,10.98487939453125,9.123832702636719,4.265206336975098,-2.2342982292175293
1718030747796849700,10.994849609375,9.214759826660156,3.872185230255127,-1.6265212297439575
1718030747806814000,11.00481396484375,9.468399047851562,3.3409786224365234,-0.8697910308837891
1718030747816783600,11.01478369140625,9.89432144165039,2.9048867225646973,-0.2907279431819916
1718030747826593500,11.024593505859375,10.26341438293457,2.5986053943634033,0.2841476798057556
1718030747836547300,11.03454736328125,10.794621467590332,2.56510591506958,0.633499801158905
1718030747846682400,11.044682373046875,11.374282836914062,2.359323024749756,0.6382854580879211
1718030747856654600,11.054654541015625,11.785847663879395,2.210968017578125,0.21714866161346436
1718030747866617000,11.0646171875,12.029915809631348,1.975873351097107,-0.2907279431819916
1718030747876588000,11.074588134765625,12.029915809631348,1.975873351097107,-0.9990034699440002
1718030747886551300,11.08455126953125,11.757134437561035,2.018944025039673,-1.674377679824829
1718030747896521700,11.094521728515625,11.182856559753418,2.028515338897705,-2.4598217010498047
1718030747906485800,11.10448583984375,10.359127044677734,2.225325107574463,-3.0005996227264404
1718030747916455700,11.11445556640625,9.54496955871582,2.3401806354522705,-3.3690943717956543
1718030747926265300,11.124265380859375,8.654241561889648,2.407179594039917,-3.4366915225982666
1718030747936219100,11.13421923828125,7.892725467681885,2.2396819591522217,-3.3020951747894287
1718030747946354400,11.1443544921875,7.318448066711426,2.187039852142334,-3.139383316040039
1718030747956326700,11.15432666015625,6.767500877380371,2.100898265838623,-2.895315408706665
1718030747966289000,11.164288818359376,6.3463640213012695,2.004587173461914,-2.478964328765869
1718030747976260000,11.174260009765625,6.236293792724609,1.8945173025131226,-2.191227436065674
1718030747986223400,11.184223388671874,6.22193717956543,1.755733609199524,-2.004587173461914
1718030747996193800,11.19419384765625,6.312864303588867,1.9471594095230103,-2.105085611343384
1718030748006157800,11.20415771484375,6.69571590423584,2.028515338897705,-2.210369825363159
1718030748016127500,11.21412744140625,6.9445695877075195,2.028515338897705,-2.5076780319213867
1718030748025937400,11.2239375,6.958926677703857,1.932802438735962,-2.589034080505371
1718030748035891200,11.23389111328125,6.777071952819824,1.8993029594421387,-2.6799614429473877
1718030748046025700,11.244025634765626,6.5521464347839355,2.052443504333496,-2.6847469806671143
1718030748055998000,11.253998046875,6.389434814453125,2.383251428604126,-2.612962245941162
1718030748065960200,11.263960205078124,6.303293228149414,2.6464617252349854,-2.6703901290893555
1718030748075931100,11.27393115234375,6.375077724456787,2.837887763977051,-2.699103832244873
1718030748085894400,11.283894287109375,6.451648235321045,2.9718856811523438,-2.8139593601226807
1718030748095864800,11.29386474609375,6.4564337730407715,3.1304101943969727,-2.589034080505371
1718030748105828900,11.303828857421875,6.667002201080322,3.197409152984619,-2.2773690223693848
1718030748115798800,11.313798828125,6.930212497711182,3.4127633571624756,-2.1433708667755127
1718030748125608700,11.323608642578124,7.27537727355957,3.6089746952056885,-1.851446509361267
1718030748135562200,11.333562255859375,7.667799949645996,3.527618885040283,-1.8801604509353638
1718030748145697500,11.343697509765626,8.127820014953613,3.613760471343994,-2.0811574459075928
1718030748155669800,11.353669677734375,8.649456024169922,3.661616802215576,-2.263011932373047
1718030748165632000,11.363632080078125,9.267401695251465,3.5754752159118652,-2.301297187805176
1718030748175603200,11.373603271484376,10.01874828338623,3.786043643951416,-2.3641088008880615
1718030748185566500,11.38356640625,10.670194625854492,3.8291144371032715,-2.263011932373047
1718030748195537000,11.393536865234376,11.326425552368164,3.9631125926971436,-2.018944025039673
1718030748205501000,11.4035009765625,11.627922058105469,4.3417768478393555,-1.6360924243927002
1718030748215470600,11.413470703125,11.651849746704102,4.552345275878906,-1.2813565731048584
1718030748225280500,11.423280517578124,11.35513973236084,4.64805793762207,-0.8889335989952087
1718030748235234300,11.433234375,10.674980163574219,4.528416633605957,-0.9080761671066284
1718030748245369600,11.44336962890625,10.100104331970215,4.403990268707275,-1.3010972738265991
1718030748255341600,11.453341552734376,10.023533821105957,4.063611030578613,-1.913659930229187
1718030748265304000,11.463303955078125,10.5361967086792,3.6233317852020264,-2.152942180633545
1718030748275275000,11.47327490234375,11.527422904968262,2.871387243270874,-2.004587173461914
1718030748285238500,11.483238525390625,12.968500137329102,2.1343977451324463,-1.6265212297439575
1718030748295208700,11.493208740234374,14.232508659362793,1.607378602027893,-1.0707881450653076
1718030748305184000,11.50318408203125,15.147165298461914,1.2484551668167114,-0.486939400434494
1718030748315154700,11.51315478515625,15.52104377746582,1.0426725149154663,-0.01734796352684498
1718030748325107200,11.523107177734374,14.984453201293945,0.8937192559242249,0.2841476798057556
1718030748335076000,11.533076171875,13.758729934692383,0.9128618240356445,0.3846462368965149
1718030748345041700,11.543041748046875,12.025130271911621,1.2340983152389526,0.1453639715909958
1718030748355010300,11.55301025390625,10.502696990966797,1.8562321662902832,-0.3290131092071533
1718030748364976000,11.56297607421875,9.166903495788574,2.196611166000366,-0.7932206988334656
1718030748374944500,11.572944580078126,7.907082557678223,2.4263222217559814,-1.290927767753601
1718030748384910300,11.582910400390626,6.930212497711182,2.6177480220794678,-1.6408780813217163
1718030748394878500,11.59287841796875,6.025725841522217,2.823530673980713,-2.018944025039673
1718030748404844800,11.6028447265625,5.66620397567749,3.0723843574523926,-2.325225353240967
1718030748414812700,11.612812744140625,5.623133182525635,3.3984062671661377,-2.6464617252349854
1718030748424779300,11.622779296875,5.824130535125732,3.8865420818328857,-2.7421748638153076
1718030748434747000,11.632746826171875,6.375077724456787,3.9391841888427734,-2.857030153274536
1718030748444713700,11.642713623046875,7.217949390411377,3.920041799545288,-2.871387243270874
1718030748454681300,11.652681396484375,8.070392608642578,3.7812578678131104,-2.833101987838745
1718030748464648000,11.66264794921875,8.558527946472168,3.5754752159118652,-2.555534601211548
1718030748474615600,11.672615478515626,8.74038314819336,3.2644083499908447,-2.2677977085113525
1718030748484582400,11.68258251953125,8.563314437866211,3.1591241359710693,-1.827518343925476
1718030748494550000,11.692550048828124,8.017151832580566,3.2548370361328125,-1.4781662225723267
1718030748504516900,11.702516845703125,7.418946743011475,3.331407308578491,-1.2095718383789062
1718030748514484200,11.712484130859375,6.700501441955566,3.589832067489624,-0.9702895879745483
1718030748524451300,11.722451416015625,6.202794551849365,3.5706896781921387,-0.778863787651062
1718030748534418700,11.732418701171875,5.881557941436768,3.723830223083496,-0.6687939167022705
1718030748544385500,11.742385498046875,5.79063081741333,3.958326816558838,-0.6687939167022705
1718030748554353000,11.752352783203126,6.030511379241943,4.082753658294678,-0.7262216806411743
1718030748564320000,11.762320068359376,6.600003242492676,4.015754699707031,-0.7501499056816101
1718030748574287400,11.772287353515624,7.371089935302734,3.9774694442749023,-0.7692924737930298
1718030748584254500,11.78225439453125,7.883154392242432,4.044468402862549,-0.7740781307220459
1718030748594221600,11.7922216796875,8.391031265258789,4.284348964691162,-0.7501499056816101
1718030748604188700,11.802188720703125,8.625527381896973,4.590630054473877,-0.7692924737930298
1718030748614156000,11.812156005859375,8.82652473449707,4.681557655334473,-1.1473584175109863
1718030748624123100,11.822123046875,9.013164520263672,4.9878387451171875,-1.5930216312408447
1718030748634090500,11.832090576171876,9.564111709594727,5.054837703704834,-2.1433708667755127
1718030748644057600,11.8420576171875,9.937392234802246,5.069194793701172,-2.407179594039917
1718030748654024700,11.852024658203124,10.24905776977539,4.920839786529541,-2.3641088008880615
1718030748663992000,11.861991943359374,10.349555969238281,4.978267669677734,-1.8993029594421387
1718030748673959200,11.871959228515625,10.27777099609375,5.150550842285156,-1.2382856607437134
1718030748683926300,11.88192626953125,10.023533821105957,5.256433010101318,-0.6161518096923828
1718030748693893600,11.8918935546875,9.779465675354004,5.064409255981445,-0.4103690981864929
1718030748703860700,11.90186083984375,9.674181938171387,4.983053207397461,-0.19920247793197632
1718030748713827800,11.911827880859375,9.832108497619629,5.030909538269043,-0.21355941891670227
1718030748723795000,11.921794921875,10.066604614257812,5.160121917724609,-0.4821537733078003
1718030748733762300,11.93176220703125,10.478768348693848,5.256433010101318,-0.7836494445800781
1718030748743729400,11.9417294921875,10.785049438476562,5.1218366622924805,-1.022931694984436
1718030748753696800,11.95169677734375,10.272985458374023,4.528416633605957,-1.3298112154006958
1718030748763625200,11.961625244140626,10.531410217285156,4.715056896209717,-1.1042876243591309
1718030748773588500,11.97158837890625,10.923833847045898,4.753342151641846,-1.0325030088424683
1718030748783598300,11.981598388671875,11.158329963684082,4.3178486824035645,-0.9942178130149841
1718030748793566200,11.991566162109375,11.666206359863281,3.699902057647705,-0.9559326171875
1718030748803532500,12.001532470703125,12.001201629638672,3.3409786224365234,-1.0037890672683716
1718030748813500400,12.01150048828125,12.135200500488281,3.202194929122925,-1.1617153882980347
1718030748823467000,12.021467041015624,11.982059478759766,3.3266217708587646,-1.3489537239074707
1718030748833435000,12.031434814453124,11.249855995178223,3.34576416015625,-1.4350954294204712
1718030748843324000,12.041323974609375,10.201201438903809,3.5946178436279297,-1.4350954294204712
1718030748853283800,12.051283935546875,9.037093162536621,3.896113395690918,-1.363310694694519
1718030748863219700,12.0612197265625,7.768298625946045,4.00618314743042,-1.3824533224105835
1718030748873177000,12.071177001953124,6.748358249664307,4.087539196014404,-1.4015958309173584
1718030748883192600,12.081192626953126,5.862415313720703,4.101896286010742,-1.363310694694519
1718030748893155800,12.09115576171875,5.178068161010742,4.164707660675049,-1.290927767753601
1718030748903088000,12.101088134765625,4.972285270690918,4.030111312866211,-1.2574282884597778
1718030748913048300,12.11104833984375,5.010570526123047,3.910470485687256,-1.0372886657714844
1718030748922984000,12.12098388671875,5.06799840927124,3.3505499362945557,-0.989432156085968
1718030748932941600,12.130941650390625,5.484349727630615,3.019742250442505,-0.711864709854126
1718030748942995500,12.140995361328125,6.332006931304932,3.1351959705352783,-0.4295116662979126
1718030748952962800,12.150962890625,7.155735969543457,3.197409152984619,-0.5539384484291077
1718030748962930000,12.160929931640625,7.53858757019043,3.053241729736328,-0.5587241053581238
1718030748972897300,12.170897216796876,7.490731239318848,2.833101987838745,-0.6879364848136902
1718030748982825700,12.18082568359375,7.1270222663879395,2.8043880462646484,-0.6305087804794312
1718030748992789000,12.1907890625,6.786643028259277,3.0005996227264404,-0.3720839321613312
1718030749002682600,12.2006826171875,6.193222999572754,3.479762315750122,-0.3481557071208954
1718030749012639200,12.21063916015625,5.924628734588623,4.030111312866211,-0.5970092415809631
1718030749022578200,12.220578125,5.910272121429443,4.2795634269714355,-0.9942178130149841
1718030749032533000,12.230532958984375,6.308078765869141,4.308277130126953,-1.195214867591858
1718030749042435300,12.240435302734374,6.949355125427246,4.3417768478393555,-1.3154542446136475
1718030749052384800,12.250384765625,7.562515735626221,4.31306266784668,-1.3154542446136475
1718030749062292500,12.26029248046875,8.290532112121582,4.241278171539307,-1.4398809671401978
1718030749072237600,12.270237548828124,8.625527381896973,4.034897327423096,-1.3680963516235352
1718030749082187800,12.280187744140624,8.673383712768555,3.723830223083496,-1.3872389793395996
1718030749092133600,12.290133544921876,8.74038314819336,3.6568312644958496,-1.3537393808364868
1718030749102045000,12.300044921875,8.807381629943848,3.7716867923736572,-1.5212370157241821
1718030749111987200,12.3099873046875,9.152546882629395,3.8626139163970947,-1.913659930229187
1718030749121940200,12.319940185546875,9.391828536987305,3.8386857509613037,-2.5124638080596924
1718030749131883800,12.3298837890625,9.439684867858887,3.690330743789673,-3.1250264644622803
1718030749141797400,12.33979736328125,9.750752449035645,3.7956149578094482,-3.3984062671661377
1718030749151737900,12.34973779296875,10.071390151977539,4.289134502410889,-3.40797758102417
1718030749161654500,12.359654541015624,10.239486694335938,4.451846599578857,-3.422334671020508
1718030749171592400,12.369592529296876,10.191629409790039,4.4997029304504395,-3.393620729446411
1718030749181549800,12.3795498046875,9.970891952514648,4.3417768478393555,-3.0867412090301514
1718030749191489800,12.38948974609375,9.961320877075195,4.552345275878906,-3.0628130435943604
1718030749201368600,12.39936865234375,10.234700202941895,4.662415027618408,-3.1728827953338623
1718030749211302400,12.409302490234374,10.5361967086792,4.442275047302246,-3.297309637069702
1718030749221263600,12.419263671875,11.163115501403809,3.96789813041687,-3.5084762573242188
1718030749231200300,12.4292001953125,11.891132354736328,3.4606196880340576,-3.6329028606414795
1718030749241120800,12.439120849609376,12.336795806884766,3.0388846397399902,-3.723830223083496
1718030749251055600,12.4490556640625,12.743575096130371,2.641676187515259,-3.800400495529175
1718030749261054200,12.45905419921875,13.318450927734375,2.1535403728485107,-3.675973892211914
1718030749270995700,12.46899560546875,13.897514343261719,1.4733805656433105,-3.321237802505493
1718030749281175600,12.479175537109375,14.405390739440918,1.1431710720062256,-2.737389087677002
1718030749291355600,12.489355712890625,14.66381549835205,0.8171489238739014,-1.908874273300171
1718030749301535500,12.499535400390625,14.46760368347168,0.5587241053581238,-1.109073281288147
1718030749311715600,12.509715576171875,13.907085418701172,0.5252245664596558,-0.5156532526016235
1718030749321787400,12.519787353515625,12.844073295593262,0.5156532526016235,0.11186445504426956
1718030749331765500,12.529765625,11.69013500213623,0.5060819983482361,0.4085744619369507
1718030749341721900,12.539721923828125,10.598409652709961,0.6879364848136902,0.26500511169433594
1718030749351698000,12.549697998046875,9.549755096435547,0.6496513485908508,0.18364913761615753
1718030749361656300,12.55965625,8.59202766418457,0.6592226624488831,-0.251844584941864
1718030749371630600,12.569630615234376,8.185248374938965,0.8219345808029175,-0.6544370055198669
1718030749381590800,12.5795908203125,8.113463401794434,0.8410771489143372,-1.1377872228622437
1718030749391563800,12.589563720703126,8.280961036682129,0.9272187948226929,-1.602592945098877
1718030749401525200,12.599525146484375,8.347960472106934,1.1240284442901611,-2.0859432220458984
1718030749411497000,12.6094970703125,8.400602340698242,1.3680963516235352,-2.4119651317596436
1718030749421498600,12.61949853515625,8.438887596130371,1.5451651811599731,-2.531606435775757
1718030749431473200,12.62947314453125,8.271389961242676,1.6552350521087646,-2.210369825363159
1718030749441433000,12.63943310546875,8.046463966369629,1.6648063659667969,-1.9567307233810425
1718030749451406300,12.64940625,7.849654674530029,1.6648063659667969,-1.7174484729766846
1718030749461367600,12.659367431640625,7.52423095703125,1.7413766384124756,-1.51166570186615
1718030749471339500,12.669339599609375,7.083951473236084,1.9184455871582031,-1.1569297313690186
1718030749481302000,12.679302001953126,6.6382880210876465,1.9710876941680908,-0.8027920126914978
1718030749491273000,12.68927294921875,6.121438503265381,2.091326951980591,-0.5539384484291077
1718030749501236500,12.699236572265624,6.044867992401123,2.2396819591522217,-0.44386860728263855
1718030749511206700,12.70920654296875,6.217151641845703,2.4263222217559814,-0.3242274820804596
1718030749521170700,12.719170654296875,6.09751033782959,2.5842485427856445,-0.2231307178735733
1718030749531140400,12.729140380859375,5.938985824584961,2.699103832244873,-0.17527425289154053
1718030749541105200,12.739105224609375,5.948556900024414,2.8426733016967773,-0.2667997181415558
1718030749551074300,12.74907421875,6.111867427825928,3.091526746749878,-0.3242274820804596
1718030749561039600,12.75903955078125,6.437291145324707,3.226123094558716,-0.6831508874893188
1718030749571008500,12.769008544921874,6.839285373687744,3.226123094558716,-1.0564311742782593
1718030749580819500,12.7788193359375,7.347161769866943,3.1447670459747314,-1.171286702156067
1718030749590772500,12.7887724609375,8.108677864074707,3.0101709365844727,-1.1569297313690186
1718030749600908300,12.798908203125,9.104690551757812,2.7804598808288574,-1.2191431522369385
1718030749610879700,12.808879638671876,9.951749801635742,2.6560330390930176,-1.113858938217163
1718030749620842800,12.8188427734375,10.51226806640625,2.50289249420166,-1.0133603811264038
1718030749630813400,12.8288134765625,10.794621467590332,2.4263222217559814,-0.8554341197013855
1718030749640777200,12.838777099609375,10.89990520477295,2.60339093208313,-0.7836494445800781
1718030749650747100,12.8487470703125,10.789835929870605,2.7278177738189697,-0.8219345808029175
1718030749660711700,12.858711669921876,10.440483093261719,2.9048867225646973,-0.9080761671066284
1718030749670681000,12.86868115234375,10.03310489654541,3.0723843574523926,-1.085145115852356
1718030749680646100,12.878646240234374,9.712467193603516,3.417548894882202,-1.2382856607437134
1718030749690615000,12.888614990234375,9.698110580444336,3.7334015369415283,-1.3968101739883423
1718030749700425700,12.89842578125,10.052248001098633,3.7525441646575928,-1.4733805656433105
1718030749710379000,12.90837890625,10.392626762390137,3.4893336296081543,-1.540379524230957
1718030749720514800,12.918514892578125,10.9573335647583,3.019742250442505,-1.3537393808364868
